ExperimentName,Subject,Session,Procedure[Block],Running[Block],Trial,Block1ITEMS,Block2ITEMS,cue_target,Direction,ListNum,pword3.RESP,pword3.RT,pword5.RESP,pword5.RT,Rword1.RESP,Rword1.RT,Rword2.RESP,Rword2.RT,Procedure[Trial]
D_JOL A 2,141,1,BlockProc1,Block1,1,,,Member - Group,,5,,,,,,,,,StudyProc1
D_JOL A 2,141,1,BlockProc1,Block1,2,,,Shrimp - Fish,,4,,,,,,,,,StudyProc1
D_JOL A 2,141,1,BlockProc1,Block1,3,,,Curtain - Drapes,,2,,,,,,,,,StudyProc1
D_JOL A 2,141,1,BlockProc1,Block1,4,,,Snow - Ice,,3,,,,,,,,,StudyProc1
D_JOL A 2,141,1,BlockProc1,Block1,5,,,Haircut-Scissors,,1,,,,,,,,,StudyProc1
D_JOL A 2,141,1,BlockProc1,Block1,6,37,,Smell - Stench,B,37,90,2908,,,,,,,StudyProc3
D_JOL A 2,141,1,BlockProc1,Block1,7,7,,Bitter - Cold,F,7,100,4275,,,,,,,StudyProc3
D_JOL A 2,141,1,BlockProc1,Block1,8,38,,Clothes - Attire,B,38,60,14571,,,,,,,StudyProc3
D_JOL A 2,141,1,BlockProc1,Block1,9,76,,Sugar - Riddle,U,76,20,11635,,,,,,,StudyProc3
D_JOL A 2,141,1,BlockProc1,Block1,10,13,,Bridge - Water,F,13,100,3209,,,,,,,StudyProc3
D_JOL A 2,141,1,BlockProc1,Block1,11,42,,Number - Amount,S,42,10,6755,,,,,,,StudyProc3
D_JOL A 2,141,1,BlockProc1,Block1,12,55,,Shoe - Foot,S,55,12,13930,,,,,,,StudyProc3
D_JOL A 2,141,1,BlockProc1,Block1,13,22,,Drink - Sip,B,22,100,2146,,,,,,,StudyProc3
D_JOL A 2,141,1,BlockProc1,Block1,14,70,,Fix - Hand,U,70,50,6970,,,,,,,StudyProc3
D_JOL A 2,141,1,BlockProc1,Block1,15,8,,Root - Plant,F,8,20,3347,,,,,,,StudyProc3
D_JOL A 2,141,1,BlockProc1,Block1,16,71,,Machine - Position,U,71,100,7604,,,,,,,StudyProc3
D_JOL A 2,141,1,BlockProc1,Block1,17,32,,Hot - Chili,B,32,100,2723,,,,,,,StudyProc3
D_JOL A 2,141,1,BlockProc1,Block1,18,27,,Bug - Wasp,B,27,20,3358,,,,,,,StudyProc3
D_JOL A 2,141,1,BlockProc1,Block1,19,63,,Park - Hungry,U,63,10,3368,,,,,,,StudyProc3
D_JOL A 2,141,1,BlockProc1,Block1,20,51,,Pop - Soda,S,51,100,2609,,,,,,,StudyProc3
D_JOL A 2,141,1,BlockProc1,Block1,21,4,,Chisel - Hammer,F,4,100,1930,,,,,,,StudyProc3
D_JOL A 2,141,1,BlockProc1,Block1,22,16,,Discussion - Talk,F,16,100,3208,,,,,,,StudyProc3
D_JOL A 2,141,1,BlockProc1,Block1,23,58,,Honey - Bee,S,58,100,2459,,,,,,,StudyProc3
D_JOL A 2,141,1,BlockProc1,Block1,24,56,,Past - Future,S,57,50,6984,,,,,,,StudyProc3
D_JOL A 2,141,1,BlockProc1,Block1,25,61,,Pusher - Clutter,U,61,100,3734,,,,,,,StudyProc3
D_JOL A 2,141,1,BlockProc1,Block1,26,9,,Swan - Bird,F,9,80,5698,,,,,,,StudyProc3
D_JOL A 2,141,1,BlockProc1,Block1,27,3,,Wage - Money,F,3,100,5002,,,,,,,StudyProc3
D_JOL A 2,141,1,BlockProc1,Block1,28,43,,Location - Site,S,43,100,3039,,,,,,,StudyProc3
D_JOL A 2,141,1,BlockProc1,Block1,29,34,,Work - Chore,B,34,60,3297,,,,,,,StudyProc3
D_JOL A 2,141,1,BlockProc1,Block1,30,39,,Plane - Pilot,B,39,70,3186,,,,,,,StudyProc3
D_JOL A 2,141,1,BlockProc1,Block1,31,44,,Dump - Waste,S,44,40,4379,,,,,,,StudyProc3
D_JOL A 2,141,1,BlockProc1,Block1,32,69,,Artery - Bronze,U,69,40,5159,,,,,,,StudyProc3
D_JOL A 2,141,1,BlockProc1,Block1,33,73,,Allow - Tuck,U,73,5,14324,,,,,,,StudyProc3
D_JOL A 2,141,1,BlockProc1,Block1,34,59,,Baby - Child,S,59,90,3050,,,,,,,StudyProc3
D_JOL A 2,141,1,BlockProc1,Block1,35,65,,Soon - Belt,U,65,50,8877,,,,,,,StudyProc3
D_JOL A 2,141,1,BlockProc1,Block1,36,12,,Hygiene - Clean,F,12,20,2396,,,,,,,StudyProc3
D_JOL A 2,141,1,BlockProc1,Block1,37,24,,Take - Seize,B,24,20,2058,,,,,,,StudyProc3
D_JOL A 2,141,1,BlockProc1,Block1,38,72,,Happy - Car,U,72,90,2041,,,,,,,StudyProc3
D_JOL A 2,141,1,BlockProc1,Block1,39,64,,Lift - Woman,U,64,40,6988,,,,,,,StudyProc3
D_JOL A 2,141,1,BlockProc1,Block1,40,41,,Due - Assignment,S,41,80,8362,,,,,,,StudyProc3
D_JOL A 2,141,1,BlockProc1,Block1,41,20,,Tuna -  Fish,F,20,80,3993,,,,,,,StudyProc3
D_JOL A 2,141,1,BlockProc1,Block1,42,25,,Height - Growth,B,25,80,3041,,,,,,,StudyProc3
D_JOL A 2,141,1,BlockProc1,Block1,43,21,,Full - Enough,B,21,2,5955,,,,,,,StudyProc3
D_JOL A 2,141,1,BlockProc1,Block1,44,17,,Herd - Cow,F,17,20,10017,,,,,,,StudyProc3
D_JOL A 2,141,1,BlockProc1,Block1,45,18,,Credit - Card,F,18,90,2680,,,,,,,StudyProc3
D_JOL A 2,141,1,BlockProc1,Block1,46,45,,Trial - Jury,S,45,80,3007,,,,,,,StudyProc3
D_JOL A 2,141,1,BlockProc1,Block1,47,6,,Hornet - Sting,F,6,100,3338,,,,,,,StudyProc3
D_JOL A 2,141,1,BlockProc1,Block1,48,2,,Digestion - Stomach,F,2,90,2530,,,,,,,StudyProc3
D_JOL A 2,141,1,BlockProc1,Block1,49,50,,Blow - Wind,S,50,20,11479,,,,,,,StudyProc3
D_JOL A 2,141,1,BlockProc1,Block1,50,78,,Cash - Would,U,78,10,5649,,,,,,,StudyProc3
D_JOL A 2,141,1,BlockProc1,Block1,51,23,,Dark - Cave,B,23,90,5276,,,,,,,StudyProc3
D_JOL A 2,141,1,BlockProc1,Block1,52,60,,Circle - Round,S,60,50,5526,,,,,,,StudyProc3
D_JOL A 2,141,1,BlockProc1,Block1,53,19,,Orchid - Flower,F,19,90,2304,,,,,,,StudyProc3
D_JOL A 2,141,1,BlockProc1,Block1,54,10,,Paw - Dog,F,10,90,1939,,,,,,,StudyProc3
D_JOL A 2,141,1,BlockProc1,Block1,55,35,,Hunger - Famine,B,35,80,3028,,,,,,,StudyProc3
D_JOL A 2,141,1,BlockProc1,Block1,56,5,,Editor - News,F,5,50,2860,,,,,,,StudyProc3
D_JOL A 2,141,1,BlockProc1,Block1,57,52,,Wine - Cheese,S,52,80,2319,,,,,,,StudyProc3
D_JOL A 2,141,1,BlockProc1,Block1,58,15,,Revolution - War,F,15,90,2071,,,,,,,StudyProc3
D_JOL A 2,141,1,BlockProc1,Block1,59,29,,Law - Attorney,B,29,60,10442,,,,,,,StudyProc3
D_JOL A 2,141,1,BlockProc1,Block1,60,46,,Architecture - Design,S,46,20,4218,,,,,,,StudyProc3
D_JOL A 2,141,1,BlockProc1,Block1,61,1,,Delinquent - Bad,F,1,50,5488,,,,,,,StudyProc3
D_JOL A 2,141,1,BlockProc1,Block1,62,30,,Great - Fantastic,B,30,60,2715,,,,,,,StudyProc3
D_JOL A 2,141,1,BlockProc1,Block1,63,62,,Dietary - Sacking,U,62,10,5507,,,,,,,StudyProc3
D_JOL A 2,141,1,BlockProc1,Block1,64,40,,Fire - Blaze,B,40,20,3178,,,,,,,StudyProc3
D_JOL A 2,141,1,BlockProc1,Block1,65,53,,Bathroom - Toilet,S,53,40,4378,,,,,,,StudyProc3
D_JOL A 2,141,1,BlockProc1,Block1,66,26,,Sentence - Word,B,26,20,13443,,,,,,,StudyProc3
D_JOL A 2,141,1,BlockProc1,Block1,67,47,,Grill -Bar,S,47,,8765,,,,,,,StudyProc3
D_JOL A 2,141,1,BlockProc1,Block1,68,31,,Key - Latch,B,31,70,2760,,,,,,,StudyProc3
D_JOL A 2,141,1,BlockProc1,Block1,69,48,,Kidney - Liver,S,48,30,5962,,,,,,,StudyProc3
D_JOL A 2,141,1,BlockProc1,Block1,70,49,,Begin - End,S,49,10,3967,,,,,,,StudyProc3
D_JOL A 2,141,1,BlockProc1,Block1,71,14,,Geology - Rock,F,14,80,2678,,,,,,,StudyProc3
D_JOL A 2,141,1,BlockProc1,Block1,72,75,,Strong - Accident,U,75,20,9571,,,,,,,StudyProc3
D_JOL A 2,141,1,BlockProc1,Block1,73,80,,King - Vase,U,80,20,2436,,,,,,,StudyProc3
D_JOL A 2,141,1,BlockProc1,Block1,74,68,,Debate - Sight,U,68,60,3686,,,,,,,StudyProc3
D_JOL A 2,141,1,BlockProc1,Block1,75,67,,Death - Business,U,67,90,3340,,,,,,,StudyProc3
D_JOL A 2,141,1,BlockProc1,Block1,76,28,,Math - Division,B,28,90,4117,,,,,,,StudyProc3
D_JOL A 2,141,1,BlockProc1,Block1,77,11,,Way - Out,F,11,90,2620,,,,,,,StudyProc3
D_JOL A 2,141,1,BlockProc1,Block1,78,57,,Lettuce - Salad,S,56,90,2630,,,,,,,StudyProc3
D_JOL A 2,141,1,BlockProc1,Block1,79,74,,Art - Lion,U,74,30,7742,,,,,,,StudyProc3
D_JOL A 2,141,1,BlockProc1,Block1,80,79,,Hide - Sick,U,79,70,4642,,,,,,,StudyProc3
D_JOL A 2,141,1,BlockProc1,Block1,81,66,,Discover - Floor,U,66,10,3264,,,,,,,StudyProc3
D_JOL A 2,141,1,BlockProc1,Block1,82,33,,Ball - Racket,B,33,20,7570,,,,,,,StudyProc3
D_JOL A 2,141,1,BlockProc1,Block1,83,77,,Valley - Add,U,77,80,2174,,,,,,,StudyProc3
D_JOL A 2,141,1,BlockProc1,Block1,84,54,,Choice - Decision,S,54,80,2408,,,,,,,StudyProc3
D_JOL A 2,141,1,BlockProc1,Block1,85,36,,Sleep - Drowsy,B,36,80,3021,,,,,,,StudyProc3
D_JOL A 2,141,1,BlockProc1,Block1,86,,,Geese - Goose,,1,,,,,,,,,StudyProc2
D_JOL A 2,141,1,BlockProc1,Block1,87,,,Friendliness - Nice,,3,,,,,,,,,StudyProc2
D_JOL A 2,141,1,BlockProc1,Block1,88,,,Grab - Take,,2,,,,,,,,,StudyProc2
D_JOL A 2,141,1,BlockProc1,Block1,89,,,Trees - Green,,5,,,,,,,,,StudyProc2
D_JOL A 2,141,1,BlockProc1,Block1,90,,,Catcher - Baseball,,4,,,,,,,,,StudyProc2
D_JOL A 2,141,1,BlockProc1,Block1,91,,,Bridge - ?,,13,,,,,Water,10548,,,recallproc1
D_JOL A 2,141,1,BlockProc1,Block1,92,,,Wage - ?,,3,,,,,Pay,4787,,,recallproc1
D_JOL A 2,141,1,BlockProc1,Block1,93,,,Soon - ?,,65,,,,,Time,5046,,,recallproc1
D_JOL A 2,141,1,BlockProc1,Block1,94,,,Tuna - ?,,20,,,,,Fish,3679,,,recallproc1
D_JOL A 2,141,1,BlockProc1,Block1,95,,,Dump - ?,,44,,,,,Trash,6327,,,recallproc1
D_JOL A 2,141,1,BlockProc1,Block1,96,,,Due - ?,,41,,,,,assignent,6531,,,recallproc1
D_JOL A 2,141,1,BlockProc1,Block1,97,,,Credit - ?,,18,,,,,card,1966,,,recallproc1
D_JOL A 2,141,1,BlockProc1,Block1,98,,,Debate - ?,,68,,,,,talk,3469,,,recallproc1
D_JOL A 2,141,1,BlockProc1,Block1,99,,,Key - ?,,31,,,,,card,2550,,,recallproc1
D_JOL A 2,141,1,BlockProc1,Block1,100,,,Sleep - ?,,36,,,,,aid,2989,,,recallproc1
D_JOL A 2,141,1,BlockProc1,Block1,101,,,Location - ?,,43,,,,,place,9921,,,recallproc1
D_JOL A 2,141,1,BlockProc1,Block1,102,,,Park - ?,,63,,,,,car,3546,,,recallproc1
D_JOL A 2,141,1,BlockProc1,Block1,103,,,Grill - ?,,47,,,,,food,3416,,,recallproc1
D_JOL A 2,141,1,BlockProc1,Block1,104,,,Number - ?,,42,,,,,two,2675,,,recallproc1
D_JOL A 2,141,1,BlockProc1,Block1,105,,,Cash - ?,,78,,,,,money,5484,,,recallproc1
D_JOL A 2,141,1,BlockProc1,Block1,106,,,Height - ?,,25,,,,,weight,4363,,,recallproc1
D_JOL A 2,141,1,BlockProc1,Block1,107,,,Full - ?,,21,,,,,big,4647,,,recallproc1
D_JOL A 2,141,1,BlockProc1,Block1,108,,,Past - ?,,57,,,,,present,4247,,,recallproc1
D_JOL A 2,141,1,BlockProc1,Block1,109,,,Art - ?,,74,,,,,picture,8993,,,recallproc1
D_JOL A 2,141,1,BlockProc1,Block1,110,,,Plane - ?,,39,,,,,train,5448,,,recallproc1
D_JOL A 2,141,1,BlockProc1,Block1,111,,,Begin - ?,,49,,,,,end,1703,,,recallproc1
D_JOL A 2,141,1,BlockProc1,Block1,112,,,Swan - ?,,9,,,,,bird,4352,,,recallproc1
D_JOL A 2,141,1,BlockProc1,Block1,113,,,Hygiene - ?,,12,,,,,bath,6157,,,recallproc1
D_JOL A 2,141,1,BlockProc1,Block1,114,,,Smell - ?,,37,,,,,stench,2888,,,recallproc1
D_JOL A 2,141,1,BlockProc1,Block1,115,,,Dark - ?,,23,,,,,light,6104,,,recallproc1
D_JOL A 2,141,1,BlockProc1,Block1,116,,,Delinquent - ?,,1,,,,,crime,4621,,,recallproc1
D_JOL A 2,141,1,BlockProc1,Block1,117,,,Shoe - ?,,55,,,,,size,4743,,,recallproc1
D_JOL A 2,141,1,BlockProc1,Block1,118,,,Hide - ?,,79,,,,,sick,2964,,,recallproc1
D_JOL A 2,141,1,BlockProc1,Block1,119,,,Strong - ?,,75,,,,,weak,5866,,,recallproc1
D_JOL A 2,141,1,BlockProc1,Block1,120,,,Machine - ?,,71,,,,,gun,2689,,,recallproc1
D_JOL A 2,141,1,BlockProc1,Block1,121,,,Chisel - ?,,4,,,,,hammer,3217,,,recallproc1
D_JOL A 2,141,1,BlockProc1,Block1,122,,,Paw - ?,,10,,,,,dog,2629,,,recallproc1
D_JOL A 2,141,1,BlockProc1,Block1,123,,,Choice - ?,,54,,,,,pick,4576,,,recallproc1
D_JOL A 2,141,1,BlockProc1,Block1,124,,,Bitter - ?,,7,,,,,angry,4115,,,recallproc1
D_JOL A 2,141,1,BlockProc1,Block1,125,,,Clothes - ?,,38,,,,,shop,7162,,,recallproc1
D_JOL A 2,141,1,BlockProc1,Block1,126,,,Hunger - ?,,35,,,,,food,2627,,,recallproc1
D_JOL A 2,141,1,BlockProc1,Block1,127,,,Artery - ?,,69,,,,,museum,9863,,,recallproc1
D_JOL A 2,141,1,BlockProc1,Block1,128,,,Allow - ?,,73,,,,,go,5393,,,recallproc1
D_JOL A 2,141,1,BlockProc1,Block1,129,,,Ball - ?,,33,,,,,basketball,3939,,,recallproc1
D_JOL A 2,141,1,BlockProc1,Block1,130,,,Fix - ?,,70,,,,,shovel,18393,,,recallproc1
D_JOL A 2,141,1,BlockProc1,Block1,131,,,Fire - ?,,40,,,,,truck,5870,,,recallproc1
D_JOL A 2,141,1,BlockProc1,Block1,132,,,Law - ?,,29,,,,,attonery,7453,,,recallproc1
D_JOL A 2,141,1,BlockProc1,Block1,133,,,Death - ?,,67,,,,,business,5979,,,recallproc1
D_JOL A 2,141,1,BlockProc1,Block1,134,,,Math - ?,,28,,,,,division,7709,,,recallproc1
D_JOL A 2,141,1,BlockProc1,Block1,135,,,Dietary - ?,,62,,,,,eat,10000,,,recallproc1
D_JOL A 2,141,1,BlockProc1,Block1,136,,,Bug - ?,,27,,,,,ant,5861,,,recallproc1
D_JOL A 2,141,1,BlockProc1,Block1,137,,,Great - ?,,30,,,,,pleasant,4460,,,recallproc1
D_JOL A 2,141,1,BlockProc1,Block1,138,,,Hot - ?,,32,,,,,cold,2116,,,recallproc1
D_JOL A 2,141,1,BlockProc1,Block1,139,,,King - ?,,80,,,,,queen,6093,,,recallproc1
D_JOL A 2,141,1,BlockProc1,Block1,140,,,Trial - ?,,45,,,,,court,5602,,,recallproc1
D_JOL A 2,141,1,BlockProc1,Block1,141,,,Bathroom - ?,,53,,,,,tub,4220,,,recallproc1
D_JOL A 2,141,1,BlockProc1,Block1,142,,,Happy - ?,,72,,,,,excited,4742,,,recallproc1
D_JOL A 2,141,1,BlockProc1,Block1,143,,,Lift - ?,,64,,,,,pick,6667,,,recallproc1
D_JOL A 2,141,1,BlockProc1,Block1,144,,,Orchid - ?,,19,,,,,flower,2097,,,recallproc1
D_JOL A 2,141,1,BlockProc1,Block1,145,,,Revolution - ?,,15,,,,,war,1626,,,recallproc1
D_JOL A 2,141,1,BlockProc1,Block1,146,,,Root - ?,,8,,,,,onion,12462,,,recallproc1
D_JOL A 2,141,1,BlockProc1,Block1,147,,,Discussion - ?,,16,,,,,talk,6007,,,recallproc1
D_JOL A 2,141,1,BlockProc1,Block1,148,,,Honey - ?,,58,,,,,bee,1736,,,recallproc1
D_JOL A 2,141,1,BlockProc1,Block1,149,,,Wine - ?,,52,,,,,grape,2767,,,recallproc1
D_JOL A 2,141,1,BlockProc1,Block1,150,,,Geology - ?,,14,,,,,rocks,2189,,,recallproc1
D_JOL A 2,141,1,BlockProc1,Block1,151,,,Kidney - ?,,48,,,,,stones,3610,,,recallproc1
D_JOL A 2,141,1,BlockProc1,Block1,152,,,Architecture - ?,,46,,,,,building,2957,,,recallproc1
D_JOL A 2,141,1,BlockProc1,Block1,153,,,Pop - ?,,51,,,,,soda,2259,,,recallproc1
D_JOL A 2,141,1,BlockProc1,Block1,154,,,Drink - ?,,22,,,,,water,2509,,,recallproc1
D_JOL A 2,141,1,BlockProc1,Block1,155,,,Way - ?,,11,,,,,up,3086,,,recallproc1
D_JOL A 2,141,1,BlockProc1,Block1,156,,,Take - ?,,24,,,,,care,2878,,,recallproc1
D_JOL A 2,141,1,BlockProc1,Block1,157,,,Herd - ?,,17,,,,,horse,4568,,,recallproc1
D_JOL A 2,141,1,BlockProc1,Block1,158,,,Work - ?,,34,,,,,job,3956,,,recallproc1
D_JOL A 2,141,1,BlockProc1,Block1,159,,,Sugar - ?,,76,,,,,candy,5712,,,recallproc1
D_JOL A 2,141,1,BlockProc1,Block1,160,,,Editor - ?,,5,,,,,newspaper,3733,,,recallproc1
D_JOL A 2,141,1,BlockProc1,Block1,161,,,Discover - ?,,66,,,,,adventure,12491,,,recallproc1
D_JOL A 2,141,1,BlockProc1,Block1,162,,,Circle - ?,,60,,,,,square,10267,,,recallproc1
D_JOL A 2,141,1,BlockProc1,Block1,163,,,Lettuce - ?,,56,,,,,salad,1997,,,recallproc1
D_JOL A 2,141,1,BlockProc1,Block1,164,,,Digestion - ?,,2,,,,,intestines,3643,,,recallproc1
D_JOL A 2,141,1,BlockProc1,Block1,165,,,Sentence - ?,,26,,,,,period,2820,,,recallproc1
D_JOL A 2,141,1,BlockProc1,Block1,166,,,Hornet - ?,,6,,,,,sting,2120,,,recallproc1
D_JOL A 2,141,1,BlockProc1,Block1,167,,,Baby - ?,,59,,,,,child,5031,,,recallproc1
D_JOL A 2,141,1,BlockProc1,Block1,168,,,Blow - ?,,50,,,,,pop,1808,,,recallproc1
D_JOL A 2,141,1,BlockProc1,Block1,169,,,Valley - ?,,77,,,,,meadow,11533,,,recallproc1
D_JOL A 2,141,1,BlockProc1,Block1,170,,,Pusher - ?,,61,,,,,influencer,5220,,,recallproc1
D_JOL A 2,141,1,BlockProc2,Block2,1,,,Disintegrate - Disappear,,3,,,,,,,,,StudyProc4
D_JOL A 2,141,1,BlockProc2,Block2,2,,,Sheriff - Police,,1,,,,,,,,,StudyProc4
D_JOL A 2,141,1,BlockProc2,Block2,3,,,Malt - Chocolate,,5,,,,,,,,,StudyProc4
D_JOL A 2,141,1,BlockProc2,Block2,4,,,Hide - Scare,,2,,,,,,,,,StudyProc4
D_JOL A 2,141,1,BlockProc2,Block2,5,,,Essay - Write,,4,,,,,,,,,StudyProc4
D_JOL A 2,141,1,BlockProc2,Block2,6,,16,Dine - Eat,F,16,,,60,4213,,,,,StudyProc5
D_JOL A 2,141,1,BlockProc2,Block2,7,,58,Own - Have,S,58,,,30,3175,,,,,StudyProc5
D_JOL A 2,141,1,BlockProc2,Block2,8,,3,Cactus - Plant,F,3,,,80,2844,,,,,StudyProc5
D_JOL A 2,141,1,BlockProc2,Block2,9,,13,Mule - Donkey,F,13,,,80,2232,,,,,StudyProc5
D_JOL A 2,141,1,BlockProc2,Block2,10,,17,Shears - Scissors,F,17,,,30,10448,,,,,StudyProc5
D_JOL A 2,141,1,BlockProc2,Block2,11,,6,Adjourn - End,F,6,,,50,2150,,,,,StudyProc5
D_JOL A 2,141,1,BlockProc2,Block2,12,,18,Feud - Fight,F,18,,,50,1712,,,,,StudyProc5
D_JOL A 2,141,1,BlockProc2,Block2,13,,33,Dead - Coffin,B,33,,,70,1851,,,,,StudyProc5
D_JOL A 2,141,1,BlockProc2,Block2,14,,24,Bird - Penguin,B,24,,,50,3225,,,,,StudyProc5
D_JOL A 2,141,1,BlockProc2,Block2,15,,55,Rod - Reel,S,55,,,30,14273,,,,,StudyProc5
D_JOL A 2,141,1,BlockProc2,Block2,16,,11,Driver - Car,F,11,,,60,24480,,,,,StudyProc5
D_JOL A 2,141,1,BlockProc2,Block2,17,,28,Pop - Balloon,B,28,,,50,1963,,,,,StudyProc5
D_JOL A 2,141,1,BlockProc2,Block2,18,,76,Both - Ounce,U,76,,,20,1927,,,,,StudyProc5
D_JOL A 2,141,1,BlockProc2,Block2,19,,20,Affection - Love,F,20,,,80,3066,,,,,StudyProc5
D_JOL A 2,141,1,BlockProc2,Block2,20,,41,Razor - Shave,S,41,,,70,2276,,,,,StudyProc5
D_JOL A 2,141,1,BlockProc2,Block2,21,,29,Fruit - Strawberry,B,29,,,30,2862,,,,,StudyProc5
D_JOL A 2,141,1,BlockProc2,Block2,22,,10,Scalp - Head,F,10,,,40,3464,,,,,StudyProc5
D_JOL A 2,141,1,BlockProc2,Block2,23,,31,Cat - Panther,B,31,,,30,2794,,,,,StudyProc5
D_JOL A 2,141,1,BlockProc2,Block2,24,,78,Mirror - Children,U,78,,,20,11060,,,,,StudyProc5
D_JOL A 2,141,1,BlockProc2,Block2,25,,74,Lease - Toil,U,74,,,0,4145,,,,,StudyProc5
D_JOL A 2,141,1,BlockProc2,Block2,26,,51,Dry - Wet,S,51,,,80,14670,,,,,StudyProc5
D_JOL A 2,141,1,BlockProc2,Block2,27,,32,Glass - Breakable,B,32,,,60,3640,,,,,StudyProc5
D_JOL A 2,141,1,BlockProc2,Block2,28,,65,Meat - Obtain,U,65,,,50,3849,,,,,StudyProc5
D_JOL A 2,141,1,BlockProc2,Block2,29,,54,Phone - Communication,S,54,,,70,5135,,,,,StudyProc5
D_JOL A 2,141,1,BlockProc2,Block2,30,,61,Justice - Maroon,U,61,,,3,4726,,,,,StudyProc5
D_JOL A 2,141,1,BlockProc2,Block2,31,,45,Wrist - Bracelet,S,45,,,20,4123,,,,,StudyProc5
D_JOL A 2,141,1,BlockProc2,Block2,32,,34,Plane - Aircraft,B,34,,,80,2345,,,,,StudyProc5
D_JOL A 2,141,1,BlockProc2,Block2,33,,23,Bad - Villain,B,23,,,40,18311,,,,,StudyProc5
D_JOL A 2,141,1,BlockProc2,Block2,34,,43,Mason - Jar,S,43,,,60,2108,,,,,StudyProc5
D_JOL A 2,141,1,BlockProc2,Block2,35,,35,Fish - Sardine,B,35,,,0,3831,,,,,StudyProc5
D_JOL A 2,141,1,BlockProc2,Block2,36,,39,Sleep - Nap,B,39,,,60,2279,,,,,StudyProc5
D_JOL A 2,141,1,BlockProc2,Block2,37,,69,Keys - Joke,U,69,,,40,5301,,,,,StudyProc5
D_JOL A 2,141,1,BlockProc2,Block2,38,,47,Gone - Away,S,47,,,20,2181,,,,,StudyProc5
D_JOL A 2,141,1,BlockProc2,Block2,39,,75,Loan - Sign,U,75,,,50,5338,,,,,StudyProc5
D_JOL A 2,141,1,BlockProc2,Block2,40,,8,Litter - Trash,F,8,,,50,2428,,,,,StudyProc5
D_JOL A 2,141,1,BlockProc2,Block2,41,,62,Stretch - Cloth,U,62,,,20,2871,,,,,StudyProc5
D_JOL A 2,141,1,BlockProc2,Block2,42,,66,Crackle - Able,U,66,,,,5302,,,,,StudyProc5
D_JOL A 2,141,1,BlockProc2,Block2,43,,68,Listen - Fiction,U,68,,,20,2190,,,,,StudyProc5
D_JOL A 2,141,1,BlockProc2,Block2,44,,59,Tantrum - Temper,S,59,,,60,5086,,,,,StudyProc5
D_JOL A 2,141,1,BlockProc2,Block2,45,,63,Give - Steak,U,63,,,20,2713,,,,,StudyProc5
D_JOL A 2,141,1,BlockProc2,Block2,46,,9,Cherry - Red,F,9,,,80,5369,,,,,StudyProc5
D_JOL A 2,141,1,BlockProc2,Block2,47,,25,Star - Actress,B,25,,,90,1891,,,,,StudyProc5
D_JOL A 2,141,1,BlockProc2,Block2,48,,12,Chop - Cut,F,12,,,20,1760,,,,,StudyProc5
D_JOL A 2,141,1,BlockProc2,Block2,49,,48,Water - Drink,S,48,,,40,7107,,,,,StudyProc5
D_JOL A 2,141,1,BlockProc2,Block2,50,,52,Safety - Seatbelt,S,52,,,50,7777,,,,,StudyProc5
D_JOL A 2,141,1,BlockProc2,Block2,51,,19,Chill - Cold,F,19,,,60,2360,,,,,StudyProc5
D_JOL A 2,141,1,BlockProc2,Block2,52,,71,Name - Hate,U,71,,,70,2778,,,,,StudyProc5
D_JOL A 2,141,1,BlockProc2,Block2,53,,56,Flea - Tick,S,56,,,90,1834,,,,,StudyProc5
D_JOL A 2,141,1,BlockProc2,Block2,54,,77,Temperature - Morning,U,77,,,80,1675,,,,,StudyProc5
D_JOL A 2,141,1,BlockProc2,Block2,55,,36,Baseball - League,B,36,,,60,4491,,,,,StudyProc5
D_JOL A 2,141,1,BlockProc2,Block2,56,,53,Truth - Lie,S,53,,,30,2885,,,,,StudyProc5
D_JOL A 2,141,1,BlockProc2,Block2,57,,7,Furry - Dog,F,7,,,50,2041,,,,,StudyProc5
D_JOL A 2,141,1,BlockProc2,Block2,58,,2,Clue - Game,F,2,,,60,5499,,,,,StudyProc5
D_JOL A 2,141,1,BlockProc2,Block2,59,,4,Shoelace - Tie,F,4,,,70,4170,,,,,StudyProc5
D_JOL A 2,141,1,BlockProc2,Block2,60,,72,Fuzzy - Bang,U,72,,,70,2294,,,,,StudyProc5
D_JOL A 2,141,1,BlockProc2,Block2,61,,5,Detective - Mystery,F,5,,,60,2782,,,,,StudyProc5
D_JOL A 2,141,1,BlockProc2,Block2,62,,22,Car - Windshield,B,22,,,5,3926,,,,,StudyProc5
D_JOL A 2,141,1,BlockProc2,Block2,63,,44,Candle - Wax,S,44,,,60,1482,,,,,StudyProc5
D_JOL A 2,141,1,BlockProc2,Block2,64,,67,Shell - Snake,U,67,,,70,4817,,,,,StudyProc5
D_JOL A 2,141,1,BlockProc2,Block2,65,,26,Thread - Thimble,B,26,,,80,3934,,,,,StudyProc5
D_JOL A 2,141,1,BlockProc2,Block2,66,,21,Turn - Flip,B,21,,,90,3288,,,,,StudyProc5
D_JOL A 2,141,1,BlockProc2,Block2,67,,60,Sun - Tan,S,60,,,20,2767,,,,,StudyProc5
D_JOL A 2,141,1,BlockProc2,Block2,68,,1,Extension - Long,F,1,,,50,6014,,,,,StudyProc5
D_JOL A 2,141,1,BlockProc2,Block2,69,,50,Alone - Lonely,S,50,,,90,8367,,,,,StudyProc5
D_JOL A 2,141,1,BlockProc2,Block2,70,,14,Document - Paper,F,14,,,40,1991,,,,,StudyProc5
D_JOL A 2,141,1,BlockProc2,Block2,71,,46,Element - Carbon,S,46,,,60,1778,,,,,StudyProc5
D_JOL A 2,141,1,BlockProc2,Block2,72,,15,Incense - Smell,F,15,,,70,3335,,,,,StudyProc5
D_JOL A 2,141,1,BlockProc2,Block2,73,,42,Rights - Equal,S,42,,,90,1656,,,,,StudyProc5
D_JOL A 2,141,1,BlockProc2,Block2,74,,30,Best - Favorite,B,30,,,30,2905,,,,,StudyProc5
D_JOL A 2,141,1,BlockProc2,Block2,75,,80,Charm - Vehicle,U,80,,,70,2034,,,,,StudyProc5
D_JOL A 2,141,1,BlockProc2,Block2,76,,79,Main - Scar,U,79,,,30,5824,,,,,StudyProc5
D_JOL A 2,141,1,BlockProc2,Block2,77,,38,Honest - Truthful,B,38,,,60,2900,,,,,StudyProc5
D_JOL A 2,141,1,BlockProc2,Block2,78,,57,Loud - Noise,S,57,,,70,1936,,,,,StudyProc5
D_JOL A 2,141,1,BlockProc2,Block2,79,,49,Earth - Ground,S,49,,,60,9421,,,,,StudyProc5
D_JOL A 2,141,1,BlockProc2,Block2,80,,70,Cake - Clothes,U,70,,,,601,,,,,StudyProc5
D_JOL A 2,141,1,BlockProc2,Block2,81,,73,Moat - Clear,U,73,,,50,4408,,,,,StudyProc5
D_JOL A 2,141,1,BlockProc2,Block2,82,,64,Maze - Election,U,64,,,40,1970,,,,,StudyProc5
D_JOL A 2,141,1,BlockProc2,Block2,83,,27,Even - Revenge,B,27,,,20,2636,,,,,StudyProc5
D_JOL A 2,141,1,BlockProc2,Block2,84,,37,Money - Banker,B,37,,,30,2873,,,,,StudyProc5
D_JOL A 2,141,1,BlockProc2,Block2,85,,40,Fight - Brawl,B,40,,,90,4131,,,,,StudyProc5
D_JOL A 2,141,1,BlockProc2,Block2,86,,,Mind - Matter,,2,,,,,,,,,StudyProc6
D_JOL A 2,141,1,BlockProc2,Block2,87,,,Deaf - Hear,,3,,,,,,,,,StudyProc6
D_JOL A 2,141,1,BlockProc2,Block2,88,,,Magician - Magic,,4,,,,,,,,,StudyProc6
D_JOL A 2,141,1,BlockProc2,Block2,89,,,Contest - Competition,,5,,,,,,,,,StudyProc6
D_JOL A 2,141,1,BlockProc2,Block2,90,,,Deciet - Cheat,,1,,,,,,,,,StudyProc6
D_JOL A 2,141,1,BlockProc2,Block2,91,,,Clue - ?,,2,,,,,,,game,6975,recallproc2
D_JOL A 2,141,1,BlockProc2,Block2,92,,,Sleep - ?,,39,,,,,,,bed,2040,recallproc2
D_JOL A 2,141,1,BlockProc2,Block2,93,,,Vehicle - ?,,65,,,,,,,car,1875,recallproc2
D_JOL A 2,141,1,BlockProc2,Block2,94,,,Name - ?,,72,,,,,,,tag,2357,recallproc2
D_JOL A 2,141,1,BlockProc2,Block2,95,,,Cat - ?,,31,,,,,,,dog,2436,recallproc2
D_JOL A 2,141,1,BlockProc2,Block2,96,,,Alone - ?,,50,,,,,,,lonely,4247,recallproc2
D_JOL A 2,141,1,BlockProc2,Block2,97,,,Loud - ?,,57,,,,,,,noise,3384,recallproc2
D_JOL A 2,141,1,BlockProc2,Block2,98,,,Feud - ?,,18,,,,,,,fight,1845,recallproc2
D_JOL A 2,141,1,BlockProc2,Block2,99,,,Loan - ?,,76,,,,,,,money,2280,recallproc2
D_JOL A 2,141,1,BlockProc2,Block2,100,,,Own - ?,,58,,,,,,,car,4682,recallproc2
D_JOL A 2,141,1,BlockProc2,Block2,101,,,Money - ?,,37,,,,,,,loan,3473,recallproc2
D_JOL A 2,141,1,BlockProc2,Block2,102,,,Scalp - ?,,10,,,,,,,hair,1890,recallproc2
D_JOL A 2,141,1,BlockProc2,Block2,103,,,Document - ?,,14,,,,,,,paper,2131,recallproc2
D_JOL A 2,141,1,BlockProc2,Block2,104,,,Fruit - ?,,29,,,,,,,juice,4259,recallproc2
D_JOL A 2,141,1,BlockProc2,Block2,105,,,Earth - ?,,49,,,,,,,sun,3707,recallproc2
D_JOL A 2,141,1,BlockProc2,Block2,106,,,Moat - ?,,74,,,,,,,jacket,4130,recallproc2
D_JOL A 2,141,1,BlockProc2,Block2,107,,,Lease - ?,,75,,,,,,,house,4120,recallproc2
D_JOL A 2,141,1,BlockProc2,Block2,108,,,Pop - ?,,28,,,,,,,soda,6927,recallproc2
D_JOL A 2,141,1,BlockProc2,Block2,109,,,Both - ?,,77,,,,,,,people,7978,recallproc2
D_JOL A 2,141,1,BlockProc2,Block2,110,,,Adjourn - ?,,6,,,,,,,end,3594,recallproc2
D_JOL A 2,141,1,BlockProc2,Block2,111,,,Tantrum - ?,,59,,,,,,,angry,3030,recallproc2
D_JOL A 2,141,1,BlockProc2,Block2,112,,,Star - ?,,25,,,,,,,pop,5257,recallproc2
D_JOL A 2,141,1,BlockProc2,Block2,113,,,Glass - ?,,32,,,,,,,cup,3208,recallproc2
D_JOL A 2,141,1,BlockProc2,Block2,114,,,Thread - ?,,26,,,,,,,clothes,2443,recallproc2
D_JOL A 2,141,1,BlockProc2,Block2,115,,,Fish - ?,,35,,,,,,,food,2198,recallproc2
D_JOL A 2,141,1,BlockProc2,Block2,116,,,Driver - ?,,11,,,,,,,car,2131,recallproc2
D_JOL A 2,141,1,BlockProc2,Block2,117,,,Stretch - ?,,62,,,,,,,pull,7955,recallproc2
D_JOL A 2,141,1,BlockProc2,Block2,118,,,Best - ?,,30,,,,,,,good,11134,recallproc2
D_JOL A 2,141,1,BlockProc2,Block2,119,,,Cake - ?,,71,,,,,,,bake,2379,recallproc2
D_JOL A 2,141,1,BlockProc2,Block2,120,,,Truth - ?,,53,,,,,,,lie,1857,recallproc2
D_JOL A 2,141,1,BlockProc2,Block2,121,,,Flea - ?,,56,,,,,,,tick,2084,recallproc2
D_JOL A 2,141,1,BlockProc2,Block2,122,,,Meat - ?,,66,,,,,,,food,2230,recallproc2
D_JOL A 2,141,1,BlockProc2,Block2,123,,,Sun - ?,,60,,,,,,,earth,2697,recallproc2
D_JOL A 2,141,1,BlockProc2,Block2,124,,,Shell - ?,,68,,,,,,,fish,2602,recallproc2
D_JOL A 2,141,1,BlockProc2,Block2,125,,,Baseball - ?,,36,,,,,,,ball,2159,recallproc2
D_JOL A 2,141,1,BlockProc2,Block2,126,,,Water,,48,,,,,,,dry,6333,recallproc2
D_JOL A 2,141,1,BlockProc2,Block2,127,,,Crackle - ?,,67,,,,,,,break,9313,recallproc2
D_JOL A 2,141,1,BlockProc2,Block2,128,,,Shoelace - ?,,4,,,,,,,tie,2210,recallproc2
D_JOL A 2,141,1,BlockProc2,Block2,129,,,Detective - ?,,5,,,,,,,lie,3767,recallproc2
D_JOL A 2,141,1,BlockProc2,Block2,130,,,Honest - ?,,38,,,,,,,lie,2372,recallproc2
D_JOL A 2,141,1,BlockProc2,Block2,131,,,Incense - ?,,15,,,,,,,fragnant,8577,recallproc2
D_JOL A 2,141,1,BlockProc2,Block2,132,,,Affection - ?,,20,,,,,,,love,2297,recallproc2
D_JOL A 2,141,1,BlockProc2,Block2,133,,,Chill - ?,,19,,,,,,,relax,2562,recallproc2
D_JOL A 2,141,1,BlockProc2,Block2,134,,,Litter - ?,,8,,,,,,,trash,2368,recallproc2
D_JOL A 2,141,1,BlockProc2,Block2,135,,,Main - ?,,80,,,,,,,peoplke,3006,recallproc2
D_JOL A 2,141,1,BlockProc2,Block2,136,,,Candle - ?,,44,,,,,,,fire,3002,recallproc2
D_JOL A 2,141,1,BlockProc2,Block2,137,,,Safety - ?,,52,,,,,,,police,13022,recallproc2
D_JOL A 2,141,1,BlockProc2,Block2,138,,,Cactus - ?,,3,,,,,,,tree,2728,recallproc2
D_JOL A 2,141,1,BlockProc2,Block2,139,,,Even - ?,,27,,,,,,,between,3031,recallproc2
D_JOL A 2,141,1,BlockProc2,Block2,140,,,Bad - ?,,23,,,,,,,good,2282,recallproc2
D_JOL A 2,141,1,BlockProc2,Block2,141,,,Extension - ?,,1,,,,,,,long,1659,recallproc2
D_JOL A 2,141,1,BlockProc2,Block2,142,,,Give - ?,,63,,,,,,,up,4918,recallproc2
D_JOL A 2,141,1,BlockProc2,Block2,143,,,Mirror - ?,,79,,,,,,,reflection,5060,recallproc2
D_JOL A 2,141,1,BlockProc2,Block2,144,,,Fight - ?,,40,,,,,,,jail,6316,recallproc2
D_JOL A 2,141,1,BlockProc2,Block2,145,,,Plane - ?,,34,,,,,,,ticket,2928,recallproc2
D_JOL A 2,141,1,BlockProc2,Block2,146,,,Mule - ?,,13,,,,,,,camel,3055,recallproc2
D_JOL A 2,141,1,BlockProc2,Block2,147,,,Listen - ?,,69,,,,,,,hear,2161,recallproc2
D_JOL A 2,141,1,BlockProc2,Block2,148,,,Bird - ?,,24,,,,,,,pelican,4119,recallproc2
D_JOL A 2,141,1,BlockProc2,Block2,149,,,Element - ?,,46,,,,,,,fire,1838,recallproc2
D_JOL A 2,141,1,BlockProc2,Block2,150,,,Dry - ?,,51,,,,,,,water,2073,recallproc2
D_JOL A 2,141,1,BlockProc2,Block2,151,,,Dine - ?,,16,,,,,,,wine,2475,recallproc2
D_JOL A 2,141,1,BlockProc2,Block2,152,,,Maze - ?,,64,,,,,,,corn,1901,recallproc2
D_JOL A 2,141,1,BlockProc2,Block2,153,,,Phone - ?,,54,,,,,,,telephone,5758,recallproc2
D_JOL A 2,141,1,BlockProc2,Block2,154,,,Cherry - ?,,9,,,,,,,red,2497,recallproc2
D_JOL A 2,141,1,BlockProc2,Block2,155,,,Chop - ?,,12,,,,,,,meat,4018,recallproc2
D_JOL A 2,141,1,BlockProc2,Block2,156,,,Furry - ?,,7,,,,,,,dog,2852,recallproc2
D_JOL A 2,141,1,BlockProc2,Block2,157,,,Car - ?,,22,,,,,,,park,3743,recallproc2
D_JOL A 2,141,1,BlockProc2,Block2,158,,,Razor - ?,,41,,,,,,,cut,7341,recallproc2
D_JOL A 2,141,1,BlockProc2,Block2,159,,,Turn - ?,,21,,,,,,,your,4463,recallproc2
D_JOL A 2,141,1,BlockProc2,Block2,160,,,Fuzzy - ?,,73,,,,,,,cat,3095,recallproc2
D_JOL A 2,141,1,BlockProc2,Block2,161,,,Dead - ?,,33,,,,,,,business,7903,recallproc2
D_JOL A 2,141,1,BlockProc2,Block2,162,,,Rights - ?,,42,,,,,,,equal,2899,recallproc2
D_JOL A 2,141,1,BlockProc2,Block2,163,,,Rod - ?,,55,,,,,,,stick,4387,recallproc2
D_JOL A 2,141,1,BlockProc2,Block2,164,,,Mason - ?,,43,,,,,,,club,4167,recallproc2
D_JOL A 2,141,1,BlockProc2,Block2,165,,,Temperature - ?,,78,,,,,,,hot,1763,recallproc2
D_JOL A 2,141,1,BlockProc2,Block2,166,,,Gone - ?,,47,,,,,,,before,6866,recallproc2
D_JOL A 2,141,1,BlockProc2,Block2,167,,,Keys - ?,,70,,,,,,,car,1760,recallproc2
D_JOL A 2,141,1,BlockProc2,Block2,168,,,Justice - ?,,61,,,,,,,peace,2399,recallproc2
D_JOL A 2,141,1,BlockProc2,Block2,169,,,Shears - ?,,17,,,,,,,scissors,3708,recallproc2
D_JOL A 2,141,1,BlockProc2,Block2,170,,,Wrist - ?,,45,,,,,,,bracelet,4987,recallproc2
D_JOL A 2,145,1,BlockProc1,Block1,1,,,Haircut-Scissors,,1,,,,,,,,,StudyProc1
D_JOL A 2,145,1,BlockProc1,Block1,2,,,Curtain - Drapes,,2,,,,,,,,,StudyProc1
D_JOL A 2,145,1,BlockProc1,Block1,3,,,Member - Group,,5,,,,,,,,,StudyProc1
D_JOL A 2,145,1,BlockProc1,Block1,4,,,Shrimp - Fish,,4,,,,,,,,,StudyProc1
D_JOL A 2,145,1,BlockProc1,Block1,5,,,Snow - Ice,,3,,,,,,,,,StudyProc1
D_JOL A 2,145,1,BlockProc1,Block1,6,35,,Hunger - Famine,B,35,,424,,,,,,,StudyProc3
D_JOL A 2,145,1,BlockProc1,Block1,7,71,,Machine - Position,U,71,20,3871,,,,,,,StudyProc3
D_JOL A 2,145,1,BlockProc1,Block1,8,32,,Hot - Chili,B,32,40,4136,,,,,,,StudyProc3
D_JOL A 2,145,1,BlockProc1,Block1,9,49,,Begin - End,S,49,90,4854,,,,,,,StudyProc3
D_JOL A 2,145,1,BlockProc1,Block1,10,19,,Orchid - Flower,F,19,0,3721,,,,,,,StudyProc3
D_JOL A 2,145,1,BlockProc1,Block1,11,37,,Smell - Stench,B,37,20,5032,,,,,,,StudyProc3
D_JOL A 2,145,1,BlockProc1,Block1,12,31,,Key - Latch,B,31,30,4429,,,,,,,StudyProc3
D_JOL A 2,145,1,BlockProc1,Block1,13,15,,Revolution - War,F,15,100,4008,,,,,,,StudyProc3
D_JOL A 2,145,1,BlockProc1,Block1,14,38,,Clothes - Attire,B,38,90,2779,,,,,,,StudyProc3
D_JOL A 2,145,1,BlockProc1,Block1,15,23,,Dark - Cave,B,23,25,7200,,,,,,,StudyProc3
D_JOL A 2,145,1,BlockProc1,Block1,16,27,,Bug - Wasp,B,27,0,10494,,,,,,,StudyProc3
D_JOL A 2,145,1,BlockProc1,Block1,17,52,,Wine - Cheese,S,52,100,3486,,,,,,,StudyProc3
D_JOL A 2,145,1,BlockProc1,Block1,18,72,,Happy - Car,U,72,25,6612,,,,,,,StudyProc3
D_JOL A 2,145,1,BlockProc1,Block1,19,20,,Tuna -  Fish,F,20,30,4091,,,,,,,StudyProc3
D_JOL A 2,145,1,BlockProc1,Block1,20,28,,Math - Division,B,28,60,4704,,,,,,,StudyProc3
D_JOL A 2,145,1,BlockProc1,Block1,21,55,,Shoe - Foot,S,55,98,6231,,,,,,,StudyProc3
D_JOL A 2,145,1,BlockProc1,Block1,22,78,,Cash - Would,U,78,20,3518,,,,,,,StudyProc3
D_JOL A 2,145,1,BlockProc1,Block1,23,80,,King - Vase,U,80,20,2475,,,,,,,StudyProc3
D_JOL A 2,145,1,BlockProc1,Block1,24,12,,Hygiene - Clean,F,12,50,5000,,,,,,,StudyProc3
D_JOL A 2,145,1,BlockProc1,Block1,25,5,,Editor - News,F,5,50,3872,,,,,,,StudyProc3
D_JOL A 2,145,1,BlockProc1,Block1,26,29,,Law - Attorney,B,29,98,2995,,,,,,,StudyProc3
D_JOL A 2,145,1,BlockProc1,Block1,27,61,,Pusher - Clutter,U,61,0,2798,,,,,,,StudyProc3
D_JOL A 2,145,1,BlockProc1,Block1,28,77,,Valley - Add,U,77,10,3532,,,,,,,StudyProc3
D_JOL A 2,145,1,BlockProc1,Block1,29,68,,Debate - Sight,U,68,10,4590,,,,,,,StudyProc3
D_JOL A 2,145,1,BlockProc1,Block1,30,41,,Due - Assignment,S,41,98,3633,,,,,,,StudyProc3
D_JOL A 2,145,1,BlockProc1,Block1,31,21,,Full - Enough,B,21,50,3781,,,,,,,StudyProc3
D_JOL A 2,145,1,BlockProc1,Block1,32,75,,Strong - Accident,U,75,50,5280,,,,,,,StudyProc3
D_JOL A 2,145,1,BlockProc1,Block1,33,53,,Bathroom - Toilet,S,53,98,3017,,,,,,,StudyProc3
D_JOL A 2,145,1,BlockProc1,Block1,34,3,,Wage - Money,F,3,98,2437,,,,,,,StudyProc3
D_JOL A 2,145,1,BlockProc1,Block1,35,18,,Credit - Card,F,18,100,3302,,,,,,,StudyProc3
D_JOL A 2,145,1,BlockProc1,Block1,36,10,,Paw - Dog,F,10,100,2319,,,,,,,StudyProc3
D_JOL A 2,145,1,BlockProc1,Block1,37,47,,Grill -Bar,S,47,95,3804,,,,,,,StudyProc3
D_JOL A 2,145,1,BlockProc1,Block1,38,70,,Fix - Hand,U,70,0,2978,,,,,,,StudyProc3
D_JOL A 2,145,1,BlockProc1,Block1,39,25,,Height - Growth,B,25,98,2336,,,,,,,StudyProc3
D_JOL A 2,145,1,BlockProc1,Block1,40,30,,Great - Fantastic,B,30,80,4488,,,,,,,StudyProc3
D_JOL A 2,145,1,BlockProc1,Block1,41,51,,Pop - Soda,S,51,98,2928,,,,,,,StudyProc3
D_JOL A 2,145,1,BlockProc1,Block1,42,79,,Hide - Sick,U,79,50,3780,,,,,,,StudyProc3
D_JOL A 2,145,1,BlockProc1,Block1,43,76,,Sugar - Riddle,U,76,25,3288,,,,,,,StudyProc3
D_JOL A 2,145,1,BlockProc1,Block1,44,11,,Way - Out,F,11,98,6659,,,,,,,StudyProc3
D_JOL A 2,145,1,BlockProc1,Block1,45,67,,Death - Business,U,67,25,5143,,,,,,,StudyProc3
D_JOL A 2,145,1,BlockProc1,Block1,46,48,,Kidney - Liver,S,48,90,3573,,,,,,,StudyProc3
D_JOL A 2,145,1,BlockProc1,Block1,47,50,,Blow - Wind,S,50,98,2785,,,,,,,StudyProc3
D_JOL A 2,145,1,BlockProc1,Block1,48,64,,Lift - Woman,U,64,90,3266,,,,,,,StudyProc3
D_JOL A 2,145,1,BlockProc1,Block1,49,24,,Take - Seize,B,24,10,3399,,,,,,,StudyProc3
D_JOL A 2,145,1,BlockProc1,Block1,50,17,,Herd - Cow,F,17,98,2792,,,,,,,StudyProc3
D_JOL A 2,145,1,BlockProc1,Block1,51,36,,Sleep - Drowsy,B,36,98,2357,,,,,,,StudyProc3
D_JOL A 2,145,1,BlockProc1,Block1,52,46,,Architecture - Design,S,46,60,3967,,,,,,,StudyProc3
D_JOL A 2,145,1,BlockProc1,Block1,53,43,,Location - Site,S,43,0,8187,,,,,,,StudyProc3
D_JOL A 2,145,1,BlockProc1,Block1,54,34,,Work - Chore,B,34,10,3446,,,,,,,StudyProc3
D_JOL A 2,145,1,BlockProc1,Block1,55,54,,Choice - Decision,S,54,90,2539,,,,,,,StudyProc3
D_JOL A 2,145,1,BlockProc1,Block1,56,16,,Discussion - Talk,F,16,98,3333,,,,,,,StudyProc3
D_JOL A 2,145,1,BlockProc1,Block1,57,8,,Root - Plant,F,8,90,2131,,,,,,,StudyProc3
D_JOL A 2,145,1,BlockProc1,Block1,58,22,,Drink - Sip,B,22,90,2636,,,,,,,StudyProc3
D_JOL A 2,145,1,BlockProc1,Block1,59,40,,Fire - Blaze,B,40,40,3432,,,,,,,StudyProc3
D_JOL A 2,145,1,BlockProc1,Block1,60,62,,Dietary - Sacking,U,62,0,1670,,,,,,,StudyProc3
D_JOL A 2,145,1,BlockProc1,Block1,61,57,,Lettuce - Salad,S,56,98,2688,,,,,,,StudyProc3
D_JOL A 2,145,1,BlockProc1,Block1,62,26,,Sentence - Word,B,26,50,4136,,,,,,,StudyProc3
D_JOL A 2,145,1,BlockProc1,Block1,63,1,,Delinquent - Bad,F,1,50,3002,,,,,,,StudyProc3
D_JOL A 2,145,1,BlockProc1,Block1,64,13,,Bridge - Water,F,13,50,3548,,,,,,,StudyProc3
D_JOL A 2,145,1,BlockProc1,Block1,65,66,,Discover - Floor,U,66,0,4004,,,,,,,StudyProc3
D_JOL A 2,145,1,BlockProc1,Block1,66,74,,Art - Lion,U,74,0,2073,,,,,,,StudyProc3
D_JOL A 2,145,1,BlockProc1,Block1,67,33,,Ball - Racket,B,33,50,2964,,,,,,,StudyProc3
D_JOL A 2,145,1,BlockProc1,Block1,68,42,,Number - Amount,S,42,50,3376,,,,,,,StudyProc3
D_JOL A 2,145,1,BlockProc1,Block1,69,9,,Swan - Bird,F,9,40,2759,,,,,,,StudyProc3
D_JOL A 2,145,1,BlockProc1,Block1,70,60,,Circle - Round,S,60,50,4497,,,,,,,StudyProc3
D_JOL A 2,145,1,BlockProc1,Block1,71,56,,Past - Future,S,57,100,3200,,,,,,,StudyProc3
D_JOL A 2,145,1,BlockProc1,Block1,72,39,,Plane - Pilot,B,39,100,2354,,,,,,,StudyProc3
D_JOL A 2,145,1,BlockProc1,Block1,73,63,,Park - Hungry,U,63,20,4192,,,,,,,StudyProc3
D_JOL A 2,145,1,BlockProc1,Block1,74,4,,Chisel - Hammer,F,4,0,1428,,,,,,,StudyProc3
D_JOL A 2,145,1,BlockProc1,Block1,75,69,,Artery - Bronze,U,69,0,1476,,,,,,,StudyProc3
D_JOL A 2,145,1,BlockProc1,Block1,76,44,,Dump - Waste,S,44,80,4009,,,,,,,StudyProc3
D_JOL A 2,145,1,BlockProc1,Block1,77,58,,Honey - Bee,S,58,100,2661,,,,,,,StudyProc3
D_JOL A 2,145,1,BlockProc1,Block1,78,73,,Allow - Tuck,U,73,0,2288,,,,,,,StudyProc3
D_JOL A 2,145,1,BlockProc1,Block1,79,45,,Trial - Jury,S,45,90,3095,,,,,,,StudyProc3
D_JOL A 2,145,1,BlockProc1,Block1,80,6,,Hornet - Sting,F,6,80,3516,,,,,,,StudyProc3
D_JOL A 2,145,1,BlockProc1,Block1,81,59,,Baby - Child,S,59,80,4289,,,,,,,StudyProc3
D_JOL A 2,145,1,BlockProc1,Block1,82,2,,Digestion - Stomach,F,2,80,2948,,,,,,,StudyProc3
D_JOL A 2,145,1,BlockProc1,Block1,83,14,,Geology - Rock,F,14,20,2434,,,,,,,StudyProc3
D_JOL A 2,145,1,BlockProc1,Block1,84,7,,Bitter - Cold,F,7,0,3123,,,,,,,StudyProc3
D_JOL A 2,145,1,BlockProc1,Block1,85,65,,Soon - Belt,U,65,10,6974,,,,,,,StudyProc3
D_JOL A 2,145,1,BlockProc1,Block1,86,,,Geese - Goose,,1,,,,,,,,,StudyProc2
D_JOL A 2,145,1,BlockProc1,Block1,87,,,Friendliness - Nice,,3,,,,,,,,,StudyProc2
D_JOL A 2,145,1,BlockProc1,Block1,88,,,Trees - Green,,5,,,,,,,,,StudyProc2
D_JOL A 2,145,1,BlockProc1,Block1,89,,,Catcher - Baseball,,4,,,,,,,,,StudyProc2
D_JOL A 2,145,1,BlockProc1,Block1,90,,,Grab - Take,,2,,,,,,,,,StudyProc2
D_JOL A 2,145,1,BlockProc1,Block1,91,,,Dark - ?,,23,,,,,cave,3277,,,recallproc1
D_JOL A 2,145,1,BlockProc1,Block1,92,,,Art - ?,,74,,,,,design,4177,,,recallproc1
D_JOL A 2,145,1,BlockProc1,Block1,93,,,Past - ?,,57,,,,,future,4865,,,recallproc1
D_JOL A 2,145,1,BlockProc1,Block1,94,,,Artery - ?,,69,,,,,design,2613,,,recallproc1
D_JOL A 2,145,1,BlockProc1,Block1,95,,,Digestion - ?,,2,,,,,stomach,2532,,,recallproc1
D_JOL A 2,145,1,BlockProc1,Block1,96,,,Trial - ?,,45,,,,,end,3629,,,recallproc1
D_JOL A 2,145,1,BlockProc1,Block1,97,,,Orchid - ?,,19,,,,,end,2339,,,recallproc1
D_JOL A 2,145,1,BlockProc1,Block1,98,,,Credit - ?,,18,,,,,card,1988,,,recallproc1
D_JOL A 2,145,1,BlockProc1,Block1,99,,,Blow - ?,,50,,,,,sky,6451,,,recallproc1
D_JOL A 2,145,1,BlockProc1,Block1,100,,,Math - ?,,28,,,,,problems,3912,,,recallproc1
D_JOL A 2,145,1,BlockProc1,Block1,101,,,Number - ?,,42,,,,,word,4818,,,recallproc1
D_JOL A 2,145,1,BlockProc1,Block1,102,,,Hornet - ?,,6,,,,,sting,2808,,,recallproc1
D_JOL A 2,145,1,BlockProc1,Block1,103,,,Bug - ?,,27,,,,,gross,4046,,,recallproc1
D_JOL A 2,145,1,BlockProc1,Block1,104,,,Wine - ?,,52,,,,,cheese,2387,,,recallproc1
D_JOL A 2,145,1,BlockProc1,Block1,105,,,Tuna - ?,,20,,,,,fish,1874,,,recallproc1
D_JOL A 2,145,1,BlockProc1,Block1,106,,,Hide - ?,,79,,,,,sink,2182,,,recallproc1
D_JOL A 2,145,1,BlockProc1,Block1,107,,,Root - ?,,8,,,,,plant,3182,,,recallproc1
D_JOL A 2,145,1,BlockProc1,Block1,108,,,Lettuce - ?,,56,,,,,slad,3942,,,recallproc1
D_JOL A 2,145,1,BlockProc1,Block1,109,,,Death - ?,,67,,,,,end,4711,,,recallproc1
D_JOL A 2,145,1,BlockProc1,Block1,110,,,Kidney - ?,,48,,,,,liver,3129,,,recallproc1
D_JOL A 2,145,1,BlockProc1,Block1,111,,,Cash - ?,,78,,,,,money,2435,,,recallproc1
D_JOL A 2,145,1,BlockProc1,Block1,112,,,Fix - ?,,70,,,,,broke,3768,,,recallproc1
D_JOL A 2,145,1,BlockProc1,Block1,113,,,Herd - ?,,17,,,,,cow,2215,,,recallproc1
D_JOL A 2,145,1,BlockProc1,Block1,114,,,Law - ?,,29,,,,,attorney,3470,,,recallproc1
D_JOL A 2,145,1,BlockProc1,Block1,115,,,Height - ?,,25,,,,,tall,4226,,,recallproc1
D_JOL A 2,145,1,BlockProc1,Block1,116,,,Happy - ?,,72,,,,,nice,3735,,,recallproc1
D_JOL A 2,145,1,BlockProc1,Block1,117,,,Hygiene - ?,,12,,,,,clean,2033,,,recallproc1
D_JOL A 2,145,1,BlockProc1,Block1,118,,,Lift - ?,,64,,,,,women,2206,,,recallproc1
D_JOL A 2,145,1,BlockProc1,Block1,119,,,Allow - ?,,73,,,,,ok,3893,,,recallproc1
D_JOL A 2,145,1,BlockProc1,Block1,120,,,Plane - ?,,39,,,,,pilot,2264,,,recallproc1
D_JOL A 2,145,1,BlockProc1,Block1,121,,,Grill - ?,,47,,,,,bar,2052,,,recallproc1
D_JOL A 2,145,1,BlockProc1,Block1,122,,,Architecture - ?,,46,,,,,design,2769,,,recallproc1
D_JOL A 2,145,1,BlockProc1,Block1,123,,,Fire - ?,,40,,,,,baze,4161,,,recallproc1
D_JOL A 2,145,1,BlockProc1,Block1,124,,,Sugar - ?,,76,,,,,candy,2665,,,recallproc1
D_JOL A 2,145,1,BlockProc1,Block1,125,,,Clothes - ?,,38,,,,,shoes,5534,,,recallproc1
D_JOL A 2,145,1,BlockProc1,Block1,126,,,Work - ?,,34,,,,,ook,5143,,,recallproc1
D_JOL A 2,145,1,BlockProc1,Block1,127,,,Baby - ?,,59,,,,,child,2408,,,recallproc1
D_JOL A 2,145,1,BlockProc1,Block1,128,,,Revolution - ?,,15,,,,,war,1639,,,recallproc1
D_JOL A 2,145,1,BlockProc1,Block1,129,,,Shoe - ?,,55,,,,,foot,2396,,,recallproc1
D_JOL A 2,145,1,BlockProc1,Block1,130,,,Sleep - ?,,36,,,,,end,4731,,,recallproc1
D_JOL A 2,145,1,BlockProc1,Block1,131,,,Strong - ?,,75,,,,,end,2493,,,recallproc1
D_JOL A 2,145,1,BlockProc1,Block1,132,,,Discover - ?,,66,,,,,art,3632,,,recallproc1
D_JOL A 2,145,1,BlockProc1,Block1,133,,,Location - ?,,43,,,,,map,3534,,,recallproc1
D_JOL A 2,145,1,BlockProc1,Block1,134,,,Valley - ?,,77,,,,,cave,3600,,,recallproc1
D_JOL A 2,145,1,BlockProc1,Block1,135,,,Hot - ?,,32,,,,,cld,3615,,,recallproc1
D_JOL A 2,145,1,BlockProc1,Block1,136,,,Dump - ?,,44,,,,,end,9221,,,recallproc1
D_JOL A 2,145,1,BlockProc1,Block1,137,,,Begin - ?,,49,,,,,end,3410,,,recallproc1
D_JOL A 2,145,1,BlockProc1,Block1,138,,,Ball - ?,,33,,,,,bat,4033,,,recallproc1
D_JOL A 2,145,1,BlockProc1,Block1,139,,,Chisel - ?,,4,,,,,end,3703,,,recallproc1
D_JOL A 2,145,1,BlockProc1,Block1,140,,,Geology - ?,,14,,,,,ok,7025,,,recallproc1
D_JOL A 2,145,1,BlockProc1,Block1,141,,,Wage - ?,,3,,,,,war,2310,,,recallproc1
D_JOL A 2,145,1,BlockProc1,Block1,142,,,Choice - ?,,54,,,,,decision,3009,,,recallproc1
D_JOL A 2,145,1,BlockProc1,Block1,143,,,Park - ?,,63,,,,,hunger,3319,,,recallproc1
D_JOL A 2,145,1,BlockProc1,Block1,144,,,Pop - ?,,51,,,,,sickle,2545,,,recallproc1
D_JOL A 2,145,1,BlockProc1,Block1,145,,,Drink - ?,,22,,,,,food,4522,,,recallproc1
D_JOL A 2,145,1,BlockProc1,Block1,146,,,Honey - ?,,58,,,,,bee,1692,,,recallproc1
D_JOL A 2,145,1,BlockProc1,Block1,147,,,Editor - ?,,5,,,,,news,2815,,,recallproc1
D_JOL A 2,145,1,BlockProc1,Block1,148,,,Hunger - ?,,35,,,,,food,2174,,,recallproc1
D_JOL A 2,145,1,BlockProc1,Block1,149,,,Bitter - ?,,7,,,,,sweet,2798,,,recallproc1
D_JOL A 2,145,1,BlockProc1,Block1,150,,,Full - ?,,21,,,,,food,2573,,,recallproc1
D_JOL A 2,145,1,BlockProc1,Block1,151,,,Great - ?,,30,,,,,nice,2429,,,recallproc1
D_JOL A 2,145,1,BlockProc1,Block1,152,,,Key - ?,,31,,,,,latch,3898,,,recallproc1
D_JOL A 2,145,1,BlockProc1,Block1,153,,,Debate - ?,,68,,,,,argue,3734,,,recallproc1
D_JOL A 2,145,1,BlockProc1,Block1,154,,,King - ?,,80,,,,,queen,2527,,,recallproc1
D_JOL A 2,145,1,BlockProc1,Block1,155,,,Delinquent - ?,,1,,,,,bad,2257,,,recallproc1
D_JOL A 2,145,1,BlockProc1,Block1,156,,,Dietary - ?,,62,,,,,food,2254,,,recallproc1
D_JOL A 2,145,1,BlockProc1,Block1,157,,,Bathroom - ?,,53,,,,,toliet,2626,,,recallproc1
D_JOL A 2,145,1,BlockProc1,Block1,158,,,Due - ?,,41,,,,,assignment,4384,,,recallproc1
D_JOL A 2,145,1,BlockProc1,Block1,159,,,Way - ?,,11,,,,,end,1592,,,recallproc1
D_JOL A 2,145,1,BlockProc1,Block1,160,,,Soon - ?,,65,,,,,end,2503,,,recallproc1
D_JOL A 2,145,1,BlockProc1,Block1,161,,,Paw - ?,,10,,,,,dog,3033,,,recallproc1
D_JOL A 2,145,1,BlockProc1,Block1,162,,,Pusher - ?,,61,,,,,end,3111,,,recallproc1
D_JOL A 2,145,1,BlockProc1,Block1,163,,,Discussion - ?,,16,,,,,talk,2834,,,recallproc1
D_JOL A 2,145,1,BlockProc1,Block1,164,,,Take - ?,,24,,,,,bad,6079,,,recallproc1
D_JOL A 2,145,1,BlockProc1,Block1,165,,,Machine - ?,,71,,,,,bad,2619,,,recallproc1
D_JOL A 2,145,1,BlockProc1,Block1,166,,,Bridge - ?,,13,,,,,height,3889,,,recallproc1
D_JOL A 2,145,1,BlockProc1,Block1,167,,,Smell - ?,,37,,,,,good,3820,,,recallproc1
D_JOL A 2,145,1,BlockProc1,Block1,168,,,Circle - ?,,60,,,,,round,2034,,,recallproc1
D_JOL A 2,145,1,BlockProc1,Block1,169,,,Swan - ?,,9,,,,,bird,2168,,,recallproc1
D_JOL A 2,145,1,BlockProc1,Block1,170,,,Sentence - ?,,26,,,,,words,2159,,,recallproc1
D_JOL A 2,145,1,BlockProc2,Block2,1,,,Hide - Scare,,2,,,,,,,,,StudyProc4
D_JOL A 2,145,1,BlockProc2,Block2,2,,,Disintegrate - Disappear,,3,,,,,,,,,StudyProc4
D_JOL A 2,145,1,BlockProc2,Block2,3,,,Sheriff - Police,,1,,,,,,,,,StudyProc4
D_JOL A 2,145,1,BlockProc2,Block2,4,,,Malt - Chocolate,,5,,,,,,,,,StudyProc4
D_JOL A 2,145,1,BlockProc2,Block2,5,,,Essay - Write,,4,,,,,,,,,StudyProc4
D_JOL A 2,145,1,BlockProc2,Block2,6,,68,Listen - Fiction,U,68,,,10,5159,,,,,StudyProc5
D_JOL A 2,145,1,BlockProc2,Block2,7,,74,Lease - Toil,U,74,,,10,4368,,,,,StudyProc5
D_JOL A 2,145,1,BlockProc2,Block2,8,,51,Dry - Wet,S,51,,,80,4154,,,,,StudyProc5
D_JOL A 2,145,1,BlockProc2,Block2,9,,44,Candle - Wax,S,44,,,80,3294,,,,,StudyProc5
D_JOL A 2,145,1,BlockProc2,Block2,10,,7,Furry - Dog,F,7,,,80,2949,,,,,StudyProc5
D_JOL A 2,145,1,BlockProc2,Block2,11,,42,Rights - Equal,S,42,,,0,1996,,,,,StudyProc5
D_JOL A 2,145,1,BlockProc2,Block2,12,,20,Affection - Love,F,20,,,80,2578,,,,,StudyProc5
D_JOL A 2,145,1,BlockProc2,Block2,13,,12,Chop - Cut,F,12,,,80,2960,,,,,StudyProc5
D_JOL A 2,145,1,BlockProc2,Block2,14,,55,Rod - Reel,S,55,,,70,2518,,,,,StudyProc5
D_JOL A 2,145,1,BlockProc2,Block2,15,,9,Cherry - Red,F,9,,,80,3759,,,,,StudyProc5
D_JOL A 2,145,1,BlockProc2,Block2,16,,48,Water - Drink,S,48,,,70,4608,,,,,StudyProc5
D_JOL A 2,145,1,BlockProc2,Block2,17,,61,Justice - Maroon,U,61,,,0,1493,,,,,StudyProc5
D_JOL A 2,145,1,BlockProc2,Block2,18,,80,Charm - Vehicle,U,80,,,30,3118,,,,,StudyProc5
D_JOL A 2,145,1,BlockProc2,Block2,19,,72,Fuzzy - Bang,U,72,,,10,4426,,,,,StudyProc5
D_JOL A 2,145,1,BlockProc2,Block2,20,,5,Detective - Mystery,F,5,,,10,1526,,,,,StudyProc5
D_JOL A 2,145,1,BlockProc2,Block2,21,,52,Safety - Seatbelt,S,52,,,10,4162,,,,,StudyProc5
D_JOL A 2,145,1,BlockProc2,Block2,22,,39,Sleep - Nap,B,39,,,80,2350,,,,,StudyProc5
D_JOL A 2,145,1,BlockProc2,Block2,23,,36,Baseball - League,B,36,,,10,2558,,,,,StudyProc5
D_JOL A 2,145,1,BlockProc2,Block2,24,,4,Shoelace - Tie,F,4,,,80,3346,,,,,StudyProc5
D_JOL A 2,145,1,BlockProc2,Block2,25,,21,Turn - Flip,B,21,,,20,1890,,,,,StudyProc5
D_JOL A 2,145,1,BlockProc2,Block2,26,,53,Truth - Lie,S,53,,,80,1816,,,,,StudyProc5
D_JOL A 2,145,1,BlockProc2,Block2,27,,57,Loud - Noise,S,57,,,80,3879,,,,,StudyProc5
D_JOL A 2,145,1,BlockProc2,Block2,28,,54,Phone - Communication,S,54,,,10,2117,,,,,StudyProc5
D_JOL A 2,145,1,BlockProc2,Block2,29,,30,Best - Favorite,B,30,,,30,1834,,,,,StudyProc5
D_JOL A 2,145,1,BlockProc2,Block2,30,,49,Earth - Ground,S,49,,,10,2362,,,,,StudyProc5
D_JOL A 2,145,1,BlockProc2,Block2,31,,67,Shell - Snake,U,67,,,0,1171,,,,,StudyProc5
D_JOL A 2,145,1,BlockProc2,Block2,32,,8,Litter - Trash,F,8,,,30,4552,,,,,StudyProc5
D_JOL A 2,145,1,BlockProc2,Block2,33,,26,Thread - Thimble,B,26,,,0,3584,,,,,StudyProc5
D_JOL A 2,145,1,BlockProc2,Block2,34,,63,Give - Steak,U,63,,,25,4200,,,,,StudyProc5
D_JOL A 2,145,1,BlockProc2,Block2,35,,16,Dine - Eat,F,16,,,10,2842,,,,,StudyProc5
D_JOL A 2,145,1,BlockProc2,Block2,36,,32,Glass - Breakable,B,32,,,80,2124,,,,,StudyProc5
D_JOL A 2,145,1,BlockProc2,Block2,37,,37,Money - Banker,B,37,,,25,2932,,,,,StudyProc5
D_JOL A 2,145,1,BlockProc2,Block2,38,,64,Maze - Election,U,64,,,0,1882,,,,,StudyProc5
D_JOL A 2,145,1,BlockProc2,Block2,39,,79,Main - Scar,U,79,,,0,1303,,,,,StudyProc5
D_JOL A 2,145,1,BlockProc2,Block2,40,,62,Stretch - Cloth,U,62,,,0,3136,,,,,StudyProc5
D_JOL A 2,145,1,BlockProc2,Block2,41,,2,Clue - Game,F,2,,,0,3469,,,,,StudyProc5
D_JOL A 2,145,1,BlockProc2,Block2,42,,58,Own - Have,S,58,,,0,1733,,,,,StudyProc5
D_JOL A 2,145,1,BlockProc2,Block2,43,,15,Incense - Smell,F,15,,,0,1420,,,,,StudyProc5
D_JOL A 2,145,1,BlockProc2,Block2,44,,65,Meat - Obtain,U,65,,,0,1979,,,,,StudyProc5
D_JOL A 2,145,1,BlockProc2,Block2,45,,70,Cake - Clothes,U,70,,,0,675,,,,,StudyProc5
D_JOL A 2,145,1,BlockProc2,Block2,46,,78,Mirror - Children,U,78,,,0,1223,,,,,StudyProc5
D_JOL A 2,145,1,BlockProc2,Block2,47,,22,Car - Windshield,B,22,,,80,3808,,,,,StudyProc5
D_JOL A 2,145,1,BlockProc2,Block2,48,,29,Fruit - Strawberry,B,29,,,70,2610,,,,,StudyProc5
D_JOL A 2,145,1,BlockProc2,Block2,49,,76,Both - Ounce,U,76,,,0,2821,,,,,StudyProc5
D_JOL A 2,145,1,BlockProc2,Block2,50,,47,Gone - Away,S,47,,,0,9759,,,,,StudyProc5
D_JOL A 2,145,1,BlockProc2,Block2,51,,45,Wrist - Bracelet,S,45,,,70,10797,,,,,StudyProc5
D_JOL A 2,145,1,BlockProc2,Block2,52,,50,Alone - Lonely,S,50,,,70,5462,,,,,StudyProc5
D_JOL A 2,145,1,BlockProc2,Block2,53,,56,Flea - Tick,S,56,,,70,3218,,,,,StudyProc5
D_JOL A 2,145,1,BlockProc2,Block2,54,,11,Driver - Car,F,11,,,80,2290,,,,,StudyProc5
D_JOL A 2,145,1,BlockProc2,Block2,55,,27,Even - Revenge,B,27,,,60,2179,,,,,StudyProc5
D_JOL A 2,145,1,BlockProc2,Block2,56,,31,Cat - Panther,B,31,,,20,3114,,,,,StudyProc5
D_JOL A 2,145,1,BlockProc2,Block2,57,,77,Temperature - Morning,U,77,,,2,4474,,,,,StudyProc5
D_JOL A 2,145,1,BlockProc2,Block2,58,,17,Shears - Scissors,F,17,,,10,1703,,,,,StudyProc5
D_JOL A 2,145,1,BlockProc2,Block2,59,,13,Mule - Donkey,F,13,,,30,2796,,,,,StudyProc5
D_JOL A 2,145,1,BlockProc2,Block2,60,,66,Crackle - Able,U,66,,,0,1738,,,,,StudyProc5
D_JOL A 2,145,1,BlockProc2,Block2,61,,1,Extension - Long,F,1,,,0,1594,,,,,StudyProc5
D_JOL A 2,145,1,BlockProc2,Block2,62,,23,Bad - Villain,B,23,,,80,3923,,,,,StudyProc5
D_JOL A 2,145,1,BlockProc2,Block2,63,,18,Feud - Fight,F,18,,,30,2215,,,,,StudyProc5
D_JOL A 2,145,1,BlockProc2,Block2,64,,60,Sun - Tan,S,60,,,80,3739,,,,,StudyProc5
D_JOL A 2,145,1,BlockProc2,Block2,65,,28,Pop - Balloon,B,28,,,80,3799,,,,,StudyProc5
D_JOL A 2,145,1,BlockProc2,Block2,66,,33,Dead - Coffin,B,33,,,30,2368,,,,,StudyProc5
D_JOL A 2,145,1,BlockProc2,Block2,67,,6,Adjourn - End,F,6,,,0,1488,,,,,StudyProc5
D_JOL A 2,145,1,BlockProc2,Block2,68,,73,Moat - Clear,U,73,,,0,2400,,,,,StudyProc5
D_JOL A 2,145,1,BlockProc2,Block2,69,,75,Loan - Sign,U,75,,,0,1503,,,,,StudyProc5
D_JOL A 2,145,1,BlockProc2,Block2,70,,40,Fight - Brawl,B,40,,,0,1245,,,,,StudyProc5
D_JOL A 2,145,1,BlockProc2,Block2,71,,19,Chill - Cold,F,19,,,30,2853,,,,,StudyProc5
D_JOL A 2,145,1,BlockProc2,Block2,72,,71,Name - Hate,U,71,,,30,2174,,,,,StudyProc5
D_JOL A 2,145,1,BlockProc2,Block2,73,,34,Plane - Aircraft,B,34,,,50,2568,,,,,StudyProc5
D_JOL A 2,145,1,BlockProc2,Block2,74,,24,Bird - Penguin,B,24,,,0,2584,,,,,StudyProc5
D_JOL A 2,145,1,BlockProc2,Block2,75,,69,Keys - Joke,U,69,,,0,2771,,,,,StudyProc5
D_JOL A 2,145,1,BlockProc2,Block2,76,,3,Cactus - Plant,F,3,,,70,2689,,,,,StudyProc5
D_JOL A 2,145,1,BlockProc2,Block2,77,,10,Scalp - Head,F,10,,,80,2048,,,,,StudyProc5
D_JOL A 2,145,1,BlockProc2,Block2,78,,25,Star - Actress,B,25,,,3,3796,,,,,StudyProc5
D_JOL A 2,145,1,BlockProc2,Block2,79,,38,Honest - Truthful,B,38,,,50,3840,,,,,StudyProc5
D_JOL A 2,145,1,BlockProc2,Block2,80,,41,Razor - Shave,S,41,,,50,2357,,,,,StudyProc5
D_JOL A 2,145,1,BlockProc2,Block2,81,,46,Element - Carbon,S,46,,,0,2451,,,,,StudyProc5
D_JOL A 2,145,1,BlockProc2,Block2,82,,59,Tantrum - Temper,S,59,,,0,2444,,,,,StudyProc5
D_JOL A 2,145,1,BlockProc2,Block2,83,,14,Document - Paper,F,14,,,60,2491,,,,,StudyProc5
D_JOL A 2,145,1,BlockProc2,Block2,84,,43,Mason - Jar,S,43,,,100,1905,,,,,StudyProc5
D_JOL A 2,145,1,BlockProc2,Block2,85,,35,Fish - Sardine,B,35,,,50,3562,,,,,StudyProc5
D_JOL A 2,145,1,BlockProc2,Block2,86,,,Mind - Matter,,2,,,,,,,,,StudyProc6
D_JOL A 2,145,1,BlockProc2,Block2,87,,,Contest - Competition,,5,,,,,,,,,StudyProc6
D_JOL A 2,145,1,BlockProc2,Block2,88,,,Deciet - Cheat,,1,,,,,,,,,StudyProc6
D_JOL A 2,145,1,BlockProc2,Block2,89,,,Deaf - Hear,,3,,,,,,,,,StudyProc6
D_JOL A 2,145,1,BlockProc2,Block2,90,,,Magician - Magic,,4,,,,,,,,,StudyProc6
D_JOL A 2,145,1,BlockProc2,Block2,91,,,Sun - ?,,60,,,,,,,tan,4953,recallproc2
D_JOL A 2,145,1,BlockProc2,Block2,92,,,Plane - ?,,34,,,,,,,aircraft,6417,recallproc2
D_JOL A 2,145,1,BlockProc2,Block2,93,,,Flea - ?,,56,,,,,,,tick,2679,recallproc2
D_JOL A 2,145,1,BlockProc2,Block2,94,,,Vehicle - ?,,65,,,,,,,car,2499,recallproc2
D_JOL A 2,145,1,BlockProc2,Block2,95,,,Fuzzy - ?,,73,,,,,,,car,2422,recallproc2
D_JOL A 2,145,1,BlockProc2,Block2,96,,,Car - ?,,22,,,,,,,talking,4860,recallproc2
D_JOL A 2,145,1,BlockProc2,Block2,97,,,Baseball - ?,,36,,,,,,,bat,1784,recallproc2
D_JOL A 2,145,1,BlockProc2,Block2,98,,,Fish - ?,,35,,,,,,,car,6728,recallproc2
D_JOL A 2,145,1,BlockProc2,Block2,99,,,Crackle - ?,,67,,,,,,,crack,3169,recallproc2
D_JOL A 2,145,1,BlockProc2,Block2,100,,,Shell - ?,,68,,,,,,,sand,2129,recallproc2
D_JOL A 2,145,1,BlockProc2,Block2,101,,,Adjourn - ?,,6,,,,,,,no,1739,recallproc2
D_JOL A 2,145,1,BlockProc2,Block2,102,,,Own - ?,,58,,,,,,,idk,2572,recallproc2
D_JOL A 2,145,1,BlockProc2,Block2,103,,,Loan - ?,,76,,,,,,,cash,2060,recallproc2
D_JOL A 2,145,1,BlockProc2,Block2,104,,,Main - ?,,80,,,,,,,idk,1616,recallproc2
D_JOL A 2,145,1,BlockProc2,Block2,105,,,Moat - ?,,74,,,,,,,loaf,3143,recallproc2
D_JOL A 2,145,1,BlockProc2,Block2,106,,,Dine - ?,,16,,,,,,,food,3160,recallproc2
D_JOL A 2,145,1,BlockProc2,Block2,107,,,Best - ?,,30,,,,,,,friend,2361,recallproc2
D_JOL A 2,145,1,BlockProc2,Block2,108,,,Meat - ?,,66,,,,,,,food,2225,recallproc2
D_JOL A 2,145,1,BlockProc2,Block2,109,,,Maze - ?,,64,,,,,,,run,2703,recallproc2
D_JOL A 2,145,1,BlockProc2,Block2,110,,,Pop - ?,,28,,,,,,,balloon,6833,recallproc2
D_JOL A 2,145,1,BlockProc2,Block2,111,,,Clue - ?,,2,,,,,,,game,2599,recallproc2
D_JOL A 2,145,1,BlockProc2,Block2,112,,,Bad - ?,,23,,,,,,,friend,2302,recallproc2
D_JOL A 2,145,1,BlockProc2,Block2,113,,,Cake - ?,,71,,,,,,,good,4617,recallproc2
D_JOL A 2,145,1,BlockProc2,Block2,114,,,Water,,48,,,,,,,drink,2431,recallproc2
D_JOL A 2,145,1,BlockProc2,Block2,115,,,Mason - ?,,43,,,,,,,jar,1805,recallproc2
D_JOL A 2,145,1,BlockProc2,Block2,116,,,Name - ?,,72,,,,,,,person,3579,recallproc2
D_JOL A 2,145,1,BlockProc2,Block2,117,,,Razor - ?,,41,,,,,,,shave,2459,recallproc2
D_JOL A 2,145,1,BlockProc2,Block2,118,,,Dead - ?,,33,,,,,,,idk,2560,recallproc2
D_JOL A 2,145,1,BlockProc2,Block2,119,,,Bird - ?,,24,,,,,,,idk,1784,recallproc2
D_JOL A 2,145,1,BlockProc2,Block2,120,,,Driver - ?,,11,,,,,,,car,1783,recallproc2
D_JOL A 2,145,1,BlockProc2,Block2,121,,,Detective - ?,,5,,,,,,,police,3071,recallproc2
D_JOL A 2,145,1,BlockProc2,Block2,122,,,Money - ?,,37,,,,,,,cash,2106,recallproc2
D_JOL A 2,145,1,BlockProc2,Block2,123,,,Give - ?,,63,,,,,,,take,2757,recallproc2
D_JOL A 2,145,1,BlockProc2,Block2,124,,,Wrist - ?,,45,,,,,,,band,2093,recallproc2
D_JOL A 2,145,1,BlockProc2,Block2,125,,,Shoelace - ?,,4,,,,,,,tie,2768,recallproc2
D_JOL A 2,145,1,BlockProc2,Block2,126,,,Alone - ?,,50,,,,,,,lonely,3312,recallproc2
D_JOL A 2,145,1,BlockProc2,Block2,127,,,Rod - ?,,55,,,,,,,pole,6035,recallproc2
D_JOL A 2,145,1,BlockProc2,Block2,128,,,Document - ?,,14,,,,,,,paper,2336,recallproc2
D_JOL A 2,145,1,BlockProc2,Block2,129,,,Sleep - ?,,39,,,,,,,nap,2105,recallproc2
D_JOL A 2,145,1,BlockProc2,Block2,130,,,Earth - ?,,49,,,,,,,idk,1643,recallproc2
D_JOL A 2,145,1,BlockProc2,Block2,131,,,Honest - ?,,38,,,,,,,truth,2489,recallproc2
D_JOL A 2,145,1,BlockProc2,Block2,132,,,Loud - ?,,57,,,,,,,quiet,3580,recallproc2
D_JOL A 2,145,1,BlockProc2,Block2,133,,,Truth - ?,,53,,,,,,,lies,2324,recallproc2
D_JOL A 2,145,1,BlockProc2,Block2,134,,,Safety - ?,,52,,,,,,,idk,1821,recallproc2
D_JOL A 2,145,1,BlockProc2,Block2,135,,,Extension - ?,,1,,,,,,,idk,1475,recallproc2
D_JOL A 2,145,1,BlockProc2,Block2,136,,,Stretch - ?,,62,,,,,,,idk,1447,recallproc2
D_JOL A 2,145,1,BlockProc2,Block2,137,,,Mule - ?,,13,,,,,,,donkey,3356,recallproc2
D_JOL A 2,145,1,BlockProc2,Block2,138,,,Chill - ?,,19,,,,,,,cold,1677,recallproc2
D_JOL A 2,145,1,BlockProc2,Block2,139,,,Cactus - ?,,3,,,,,,,plant,3329,recallproc2
D_JOL A 2,145,1,BlockProc2,Block2,140,,,Justice - ?,,61,,,,,,,law,3522,recallproc2
D_JOL A 2,145,1,BlockProc2,Block2,141,,,Phone - ?,,54,,,,,,,call,2708,recallproc2
D_JOL A 2,145,1,BlockProc2,Block2,142,,,Scalp - ?,,10,,,,,,,head,1727,recallproc2
D_JOL A 2,145,1,BlockProc2,Block2,143,,,Affection - ?,,20,,,,,,,love,1865,recallproc2
D_JOL A 2,145,1,BlockProc2,Block2,144,,,Rights - ?,,42,,,,,,,war,2077,recallproc2
D_JOL A 2,145,1,BlockProc2,Block2,145,,,Tantrum - ?,,59,,,,,,,bad,1769,recallproc2
D_JOL A 2,145,1,BlockProc2,Block2,146,,,Incense - ?,,15,,,,,,,idk,2097,recallproc2
D_JOL A 2,145,1,BlockProc2,Block2,147,,,Lease - ?,,75,,,,,,,idk,1492,recallproc2
D_JOL A 2,145,1,BlockProc2,Block2,148,,,Listen - ?,,69,,,,,,,talk,2055,recallproc2
D_JOL A 2,145,1,BlockProc2,Block2,149,,,Star - ?,,25,,,,,,,ships,2668,recallproc2
D_JOL A 2,145,1,BlockProc2,Block2,150,,,Cherry - ?,,9,,,,,,,red,2088,recallproc2
D_JOL A 2,145,1,BlockProc2,Block2,151,,,Mirror - ?,,79,,,,,,,idk,2643,recallproc2
D_JOL A 2,145,1,BlockProc2,Block2,152,,,Cat - ?,,31,,,,,,,dog,1976,recallproc2
D_JOL A 2,145,1,BlockProc2,Block2,153,,,Both - ?,,77,,,,,,,idk,2328,recallproc2
D_JOL A 2,145,1,BlockProc2,Block2,154,,,Fight - ?,,40,,,,,,,freud,3682,recallproc2
D_JOL A 2,145,1,BlockProc2,Block2,155,,,Furry - ?,,7,,,,,,,dog,3045,recallproc2
D_JOL A 2,145,1,BlockProc2,Block2,156,,,Thread - ?,,26,,,,,,,idk,1339,recallproc2
D_JOL A 2,145,1,BlockProc2,Block2,157,,,Element - ?,,46,,,,,,,idk,1700,recallproc2
D_JOL A 2,145,1,BlockProc2,Block2,158,,,Even - ?,,27,,,,,,,idk,1743,recallproc2
D_JOL A 2,145,1,BlockProc2,Block2,159,,,Candle - ?,,44,,,,,,,light,2184,recallproc2
D_JOL A 2,145,1,BlockProc2,Block2,160,,,Glass - ?,,32,,,,,,,idk,2407,recallproc2
D_JOL A 2,145,1,BlockProc2,Block2,161,,,Turn - ?,,21,,,,,,,right,2230,recallproc2
D_JOL A 2,145,1,BlockProc2,Block2,162,,,Litter - ?,,8,,,,,,,trash,3020,recallproc2
D_JOL A 2,145,1,BlockProc2,Block2,163,,,Shears - ?,,17,,,,,,,idk,2450,recallproc2
D_JOL A 2,145,1,BlockProc2,Block2,164,,,Temperature - ?,,78,,,,,,,cold,1999,recallproc2
D_JOL A 2,145,1,BlockProc2,Block2,165,,,Gone - ?,,47,,,,,,,bye,1966,recallproc2
D_JOL A 2,145,1,BlockProc2,Block2,166,,,Keys - ?,,70,,,,,,,idk,2126,recallproc2
D_JOL A 2,145,1,BlockProc2,Block2,167,,,Chop - ?,,12,,,,,,,wood,2136,recallproc2
D_JOL A 2,145,1,BlockProc2,Block2,168,,,Fruit - ?,,29,,,,,,,strawberry,7322,recallproc2
D_JOL A 2,145,1,BlockProc2,Block2,169,,,Dry - ?,,51,,,,,,,wet,3547,recallproc2
D_JOL A 2,145,1,BlockProc2,Block2,170,,,Feud - ?,,18,,,,,,,fright,2628,recallproc2
D_JOL A 2,153,1,BlockProc1,Block1,1,,,Haircut-Scissors,,1,,,,,,,,,StudyProc1
D_JOL A 2,153,1,BlockProc1,Block1,2,,,Shrimp - Fish,,4,,,,,,,,,StudyProc1
D_JOL A 2,153,1,BlockProc1,Block1,3,,,Curtain - Drapes,,2,,,,,,,,,StudyProc1
D_JOL A 2,153,1,BlockProc1,Block1,4,,,Member - Group,,5,,,,,,,,,StudyProc1
D_JOL A 2,153,1,BlockProc1,Block1,5,,,Snow - Ice,,3,,,,,,,,,StudyProc1
D_JOL A 2,153,1,BlockProc1,Block1,6,29,,Law - Attorney,B,29,75,2457,,,,,,,StudyProc3
D_JOL A 2,153,1,BlockProc1,Block1,7,24,,Take - Seize,B,24,50,3718,,,,,,,StudyProc3
D_JOL A 2,153,1,BlockProc1,Block1,8,56,,Past - Future,S,57,70,3130,,,,,,,StudyProc3
D_JOL A 2,153,1,BlockProc1,Block1,9,61,,Pusher - Clutter,U,61,10,8162,,,,,,,StudyProc3
D_JOL A 2,153,1,BlockProc1,Block1,10,14,,Geology - Rock,F,14,80,3092,,,,,,,StudyProc3
D_JOL A 2,153,1,BlockProc1,Block1,11,70,,Fix - Hand,U,70,50,4697,,,,,,,StudyProc3
D_JOL A 2,153,1,BlockProc1,Block1,12,35,,Hunger - Famine,B,35,75,5949,,,,,,,StudyProc3
D_JOL A 2,153,1,BlockProc1,Block1,13,48,,Kidney - Liver,S,48,70,3703,,,,,,,StudyProc3
D_JOL A 2,153,1,BlockProc1,Block1,14,43,,Location - Site,S,43,80,2625,,,,,,,StudyProc3
D_JOL A 2,153,1,BlockProc1,Block1,15,74,,Art - Lion,U,74,20,5197,,,,,,,StudyProc3
D_JOL A 2,153,1,BlockProc1,Block1,16,71,,Machine - Position,U,71,5,11207,,,,,,,StudyProc3
D_JOL A 2,153,1,BlockProc1,Block1,17,3,,Wage - Money,F,3,80,3020,,,,,,,StudyProc3
D_JOL A 2,153,1,BlockProc1,Block1,18,22,,Drink - Sip,B,22,85,4926,,,,,,,StudyProc3
D_JOL A 2,153,1,BlockProc1,Block1,19,37,,Smell - Stench,B,37,90,3952,,,,,,,StudyProc3
D_JOL A 2,153,1,BlockProc1,Block1,20,76,,Sugar - Riddle,U,76,5,6172,,,,,,,StudyProc3
D_JOL A 2,153,1,BlockProc1,Block1,21,55,,Shoe - Foot,S,55,80,6570,,,,,,,StudyProc3
D_JOL A 2,153,1,BlockProc1,Block1,22,2,,Digestion - Stomach,F,2,80,6997,,,,,,,StudyProc3
D_JOL A 2,153,1,BlockProc1,Block1,23,49,,Begin - End,S,49,75,5256,,,,,,,StudyProc3
D_JOL A 2,153,1,BlockProc1,Block1,24,20,,Tuna -  Fish,F,20,90,3907,,,,,,,StudyProc3
D_JOL A 2,153,1,BlockProc1,Block1,25,21,,Full - Enough,B,21,50,3110,,,,,,,StudyProc3
D_JOL A 2,153,1,BlockProc1,Block1,26,66,,Discover - Floor,U,66,10,5696,,,,,,,StudyProc3
D_JOL A 2,153,1,BlockProc1,Block1,27,78,,Cash - Would,U,78,5,6342,,,,,,,StudyProc3
D_JOL A 2,153,1,BlockProc1,Block1,28,77,,Valley - Add,U,77,0,2429,,,,,,,StudyProc3
D_JOL A 2,153,1,BlockProc1,Block1,29,26,,Sentence - Word,B,26,75,6612,,,,,,,StudyProc3
D_JOL A 2,153,1,BlockProc1,Block1,30,39,,Plane - Pilot,B,39,80,2140,,,,,,,StudyProc3
D_JOL A 2,153,1,BlockProc1,Block1,31,79,,Hide - Sick,U,79,50,4195,,,,,,,StudyProc3
D_JOL A 2,153,1,BlockProc1,Block1,32,62,,Dietary - Sacking,U,62,5,3380,,,,,,,StudyProc3
D_JOL A 2,153,1,BlockProc1,Block1,33,40,,Fire - Blaze,B,40,80,3146,,,,,,,StudyProc3
D_JOL A 2,153,1,BlockProc1,Block1,34,17,,Herd - Cow,F,17,80,4204,,,,,,,StudyProc3
D_JOL A 2,153,1,BlockProc1,Block1,35,33,,Ball - Racket,B,33,70,4345,,,,,,,StudyProc3
D_JOL A 2,153,1,BlockProc1,Block1,36,8,,Root - Plant,F,8,75,5009,,,,,,,StudyProc3
D_JOL A 2,153,1,BlockProc1,Block1,37,4,,Chisel - Hammer,F,4,70,8905,,,,,,,StudyProc3
D_JOL A 2,153,1,BlockProc1,Block1,38,59,,Baby - Child,S,59,80,3482,,,,,,,StudyProc3
D_JOL A 2,153,1,BlockProc1,Block1,39,36,,Sleep - Drowsy,B,36,70,5942,,,,,,,StudyProc3
D_JOL A 2,153,1,BlockProc1,Block1,40,53,,Bathroom - Toilet,S,53,80,7607,,,,,,,StudyProc3
D_JOL A 2,153,1,BlockProc1,Block1,41,31,,Key - Latch,B,31,80,3318,,,,,,,StudyProc3
D_JOL A 2,153,1,BlockProc1,Block1,42,65,,Soon - Belt,U,65,10,8235,,,,,,,StudyProc3
D_JOL A 2,153,1,BlockProc1,Block1,43,19,,Orchid - Flower,F,19,90,3040,,,,,,,StudyProc3
D_JOL A 2,153,1,BlockProc1,Block1,44,52,,Wine - Cheese,S,52,80,14835,,,,,,,StudyProc3
D_JOL A 2,153,1,BlockProc1,Block1,45,5,,Editor - News,F,5,70,5543,,,,,,,StudyProc3
D_JOL A 2,153,1,BlockProc1,Block1,46,11,,Way - Out,F,11,60,10884,,,,,,,StudyProc3
D_JOL A 2,153,1,BlockProc1,Block1,47,23,,Dark - Cave,B,23,60,3128,,,,,,,StudyProc3
D_JOL A 2,153,1,BlockProc1,Block1,48,60,,Circle - Round,S,60,80,8871,,,,,,,StudyProc3
D_JOL A 2,153,1,BlockProc1,Block1,49,15,,Revolution - War,F,15,70,3216,,,,,,,StudyProc3
D_JOL A 2,153,1,BlockProc1,Block1,50,58,,Honey - Bee,S,58,80,3261,,,,,,,StudyProc3
D_JOL A 2,153,1,BlockProc1,Block1,51,57,,Lettuce - Salad,S,56,85,9934,,,,,,,StudyProc3
D_JOL A 2,153,1,BlockProc1,Block1,52,34,,Work - Chore,B,34,50,5545,,,,,,,StudyProc3
D_JOL A 2,153,1,BlockProc1,Block1,53,9,,Swan - Bird,F,9,75,8697,,,,,,,StudyProc3
D_JOL A 2,153,1,BlockProc1,Block1,54,16,,Discussion - Talk,F,16,80,4074,,,,,,,StudyProc3
D_JOL A 2,153,1,BlockProc1,Block1,55,69,,Artery - Bronze,U,69,5,6584,,,,,,,StudyProc3
D_JOL A 2,153,1,BlockProc1,Block1,56,68,,Debate - Sight,U,68,0,2613,,,,,,,StudyProc3
D_JOL A 2,153,1,BlockProc1,Block1,57,6,,Hornet - Sting,F,6,65,4227,,,,,,,StudyProc3
D_JOL A 2,153,1,BlockProc1,Block1,58,64,,Lift - Woman,U,64,15,5545,,,,,,,StudyProc3
D_JOL A 2,153,1,BlockProc1,Block1,59,46,,Architecture - Design,S,46,45,11163,,,,,,,StudyProc3
D_JOL A 2,153,1,BlockProc1,Block1,60,18,,Credit - Card,F,18,80,5577,,,,,,,StudyProc3
D_JOL A 2,153,1,BlockProc1,Block1,61,73,,Allow - Tuck,U,73,0,6135,,,,,,,StudyProc3
D_JOL A 2,153,1,BlockProc1,Block1,62,72,,Happy - Car,U,72,5,4821,,,,,,,StudyProc3
D_JOL A 2,153,1,BlockProc1,Block1,63,54,,Choice - Decision,S,54,95,6184,,,,,,,StudyProc3
D_JOL A 2,153,1,BlockProc1,Block1,64,41,,Due - Assignment,S,41,60,3550,,,,,,,StudyProc3
D_JOL A 2,153,1,BlockProc1,Block1,65,80,,King - Vase,U,80,25,7853,,,,,,,StudyProc3
D_JOL A 2,153,1,BlockProc1,Block1,66,50,,Blow - Wind,S,50,70,14397,,,,,,,StudyProc3
D_JOL A 2,153,1,BlockProc1,Block1,67,32,,Hot - Chili,B,32,60,6232,,,,,,,StudyProc3
D_JOL A 2,153,1,BlockProc1,Block1,68,12,,Hygiene - Clean,F,12,75,5990,,,,,,,StudyProc3
D_JOL A 2,153,1,BlockProc1,Block1,69,42,,Number - Amount,S,42,50,2640,,,,,,,StudyProc3
D_JOL A 2,153,1,BlockProc1,Block1,70,47,,Grill -Bar,S,47,70,3996,,,,,,,StudyProc3
D_JOL A 2,153,1,BlockProc1,Block1,71,51,,Pop - Soda,S,51,75,5291,,,,,,,StudyProc3
D_JOL A 2,153,1,BlockProc1,Block1,72,63,,Park - Hungry,U,63,10,7352,,,,,,,StudyProc3
D_JOL A 2,153,1,BlockProc1,Block1,73,13,,Bridge - Water,F,13,40,2663,,,,,,,StudyProc3
D_JOL A 2,153,1,BlockProc1,Block1,74,7,,Bitter - Cold,F,7,70,7286,,,,,,,StudyProc3
D_JOL A 2,153,1,BlockProc1,Block1,75,27,,Bug - Wasp,B,27,75,4396,,,,,,,StudyProc3
D_JOL A 2,153,1,BlockProc1,Block1,76,10,,Paw - Dog,F,10,80,6853,,,,,,,StudyProc3
D_JOL A 2,153,1,BlockProc1,Block1,77,45,,Trial - Jury,S,45,80,3477,,,,,,,StudyProc3
D_JOL A 2,153,1,BlockProc1,Block1,78,67,,Death - Business,U,67,10,8301,,,,,,,StudyProc3
D_JOL A 2,153,1,BlockProc1,Block1,79,44,,Dump - Waste,S,44,40,2215,,,,,,,StudyProc3
D_JOL A 2,153,1,BlockProc1,Block1,80,75,,Strong - Accident,U,75,5,4316,,,,,,,StudyProc3
D_JOL A 2,153,1,BlockProc1,Block1,81,25,,Height - Growth,B,25,60,3655,,,,,,,StudyProc3
D_JOL A 2,153,1,BlockProc1,Block1,82,38,,Clothes - Attire,B,38,70,3616,,,,,,,StudyProc3
D_JOL A 2,153,1,BlockProc1,Block1,83,1,,Delinquent - Bad,F,1,70,5843,,,,,,,StudyProc3
D_JOL A 2,153,1,BlockProc1,Block1,84,30,,Great - Fantastic,B,30,80,6208,,,,,,,StudyProc3
D_JOL A 2,153,1,BlockProc1,Block1,85,28,,Math - Division,B,28,60,7978,,,,,,,StudyProc3
D_JOL A 2,153,1,BlockProc1,Block1,86,,,Grab - Take,,2,,,,,,,,,StudyProc2
D_JOL A 2,153,1,BlockProc1,Block1,87,,,Catcher - Baseball,,4,,,,,,,,,StudyProc2
D_JOL A 2,153,1,BlockProc1,Block1,88,,,Friendliness - Nice,,3,,,,,,,,,StudyProc2
D_JOL A 2,153,1,BlockProc1,Block1,89,,,Geese - Goose,,1,,,,,,,,,StudyProc2
D_JOL A 2,153,1,BlockProc1,Block1,90,,,Trees - Green,,5,,,,,,,,,StudyProc2
D_JOL A 2,153,1,BlockProc1,Block1,91,,,Lift - ?,,64,,,,,hold,14998,,,recallproc1
D_JOL A 2,153,1,BlockProc1,Block1,92,,,Ball - ?,,33,,,,,racket,6724,,,recallproc1
D_JOL A 2,153,1,BlockProc1,Block1,93,,,Work - ?,,34,,,,,chores,10342,,,recallproc1
D_JOL A 2,153,1,BlockProc1,Block1,94,,,Editor - ?,,5,,,,,newspaper,9198,,,recallproc1
D_JOL A 2,153,1,BlockProc1,Block1,95,,,Sugar - ?,,76,,,,,sweet,9301,,,recallproc1
D_JOL A 2,153,1,BlockProc1,Block1,96,,,Great - ?,,30,,,,,fantastic,6352,,,recallproc1
D_JOL A 2,153,1,BlockProc1,Block1,97,,,Strong - ?,,75,,,,,lift,15128,,,recallproc1
D_JOL A 2,153,1,BlockProc1,Block1,98,,,Revolution - ?,,15,,,,,war,3137,,,recallproc1
D_JOL A 2,153,1,BlockProc1,Block1,99,,,Bitter - ?,,7,,,,,cold,4930,,,recallproc1
D_JOL A 2,153,1,BlockProc1,Block1,100,,,Shoe - ?,,55,,,,,sock,6892,,,recallproc1
D_JOL A 2,153,1,BlockProc1,Block1,101,,,Digestion - ?,,2,,,,,food,7086,,,recallproc1
D_JOL A 2,153,1,BlockProc1,Block1,102,,,Chisel - ?,,4,,,,,hammer,3737,,,recallproc1
D_JOL A 2,153,1,BlockProc1,Block1,103,,,Circle - ?,,60,,,,,round,5266,,,recallproc1
D_JOL A 2,153,1,BlockProc1,Block1,104,,,Key - ?,,31,,,,,lock,4255,,,recallproc1
D_JOL A 2,153,1,BlockProc1,Block1,105,,,Smell - ?,,37,,,,,taste,6939,,,recallproc1
D_JOL A 2,153,1,BlockProc1,Block1,106,,,Pusher - ?,,61,,,,,stop,7716,,,recallproc1
D_JOL A 2,153,1,BlockProc1,Block1,107,,,Clothes - ?,,38,,,,,garmet,13102,,,recallproc1
D_JOL A 2,153,1,BlockProc1,Block1,108,,,Discussion - ?,,16,,,,,talk,10832,,,recallproc1
D_JOL A 2,153,1,BlockProc1,Block1,109,,,Dark - ?,,23,,,,,night,3949,,,recallproc1
D_JOL A 2,153,1,BlockProc1,Block1,110,,,Tuna - ?,,20,,,,,fish,3038,,,recallproc1
D_JOL A 2,153,1,BlockProc1,Block1,111,,,Hide - ?,,79,,,,,seek,9851,,,recallproc1
D_JOL A 2,153,1,BlockProc1,Block1,112,,,Math - ?,,28,,,,,division,5599,,,recallproc1
D_JOL A 2,153,1,BlockProc1,Block1,113,,,Hot - ?,,32,,,,,chili,4166,,,recallproc1
D_JOL A 2,153,1,BlockProc1,Block1,114,,,Park - ?,,63,,,,,walk,5735,,,recallproc1
D_JOL A 2,153,1,BlockProc1,Block1,115,,,Paw - ?,,10,,,,,dog,3000,,,recallproc1
D_JOL A 2,153,1,BlockProc1,Block1,116,,,Fire - ?,,40,,,,,hot,7311,,,recallproc1
D_JOL A 2,153,1,BlockProc1,Block1,117,,,Art - ?,,74,,,,,lion,3945,,,recallproc1
D_JOL A 2,153,1,BlockProc1,Block1,118,,,Baby - ?,,59,,,,,child,4066,,,recallproc1
D_JOL A 2,153,1,BlockProc1,Block1,119,,,Plane - ?,,39,,,,,pilot,4670,,,recallproc1
D_JOL A 2,153,1,BlockProc1,Block1,120,,,Past - ?,,57,,,,,present,5570,,,recallproc1
D_JOL A 2,153,1,BlockProc1,Block1,121,,,Begin - ?,,49,,,,,end,3506,,,recallproc1
D_JOL A 2,153,1,BlockProc1,Block1,122,,,Architecture - ?,,46,,,,,design,7396,,,recallproc1
D_JOL A 2,153,1,BlockProc1,Block1,123,,,Discover - ?,,66,,,,,find,3307,,,recallproc1
D_JOL A 2,153,1,BlockProc1,Block1,124,,,Delinquent - ?,,1,,,,,bad,3077,,,recallproc1
D_JOL A 2,153,1,BlockProc1,Block1,125,,,Wage - ?,,3,,,,,money,4033,,,recallproc1
D_JOL A 2,153,1,BlockProc1,Block1,126,,,Take - ?,,24,,,,,give,3063,,,recallproc1
D_JOL A 2,153,1,BlockProc1,Block1,127,,,Blow - ?,,50,,,,,wind,7739,,,recallproc1
D_JOL A 2,153,1,BlockProc1,Block1,128,,,Cash - ?,,78,,,,,money,5036,,,recallproc1
D_JOL A 2,153,1,BlockProc1,Block1,129,,,Orchid - ?,,19,,,,,flower,3665,,,recallproc1
D_JOL A 2,153,1,BlockProc1,Block1,130,,,Trial - ?,,45,,,,,jury,7310,,,recallproc1
D_JOL A 2,153,1,BlockProc1,Block1,131,,,Pop - ?,,51,,,,,soda,3888,,,recallproc1
D_JOL A 2,153,1,BlockProc1,Block1,132,,,Machine - ?,,71,,,,,create,11403,,,recallproc1
D_JOL A 2,153,1,BlockProc1,Block1,133,,,Wine - ?,,52,,,,,cheese,4721,,,recallproc1
D_JOL A 2,153,1,BlockProc1,Block1,134,,,Location - ?,,43,,,,,place,5298,,,recallproc1
D_JOL A 2,153,1,BlockProc1,Block1,135,,,Root - ?,,8,,,,,plant,6725,,,recallproc1
D_JOL A 2,153,1,BlockProc1,Block1,136,,,Bathroom - ?,,53,,,,,toilet,6871,,,recallproc1
D_JOL A 2,153,1,BlockProc1,Block1,137,,,Dump - ?,,44,,,,,messy,7714,,,recallproc1
D_JOL A 2,153,1,BlockProc1,Block1,138,,,Honey - ?,,58,,,,,bee,4557,,,recallproc1
D_JOL A 2,153,1,BlockProc1,Block1,139,,,Hornet - ?,,6,,,,,sting,7501,,,recallproc1
D_JOL A 2,153,1,BlockProc1,Block1,140,,,Geology - ?,,14,,,,,rocks,3575,,,recallproc1
D_JOL A 2,153,1,BlockProc1,Block1,141,,,Allow - ?,,73,,,,,let,11591,,,recallproc1
D_JOL A 2,153,1,BlockProc1,Block1,142,,,Way - ?,,11,,,,,out,4328,,,recallproc1
D_JOL A 2,153,1,BlockProc1,Block1,143,,,Drink - ?,,22,,,,,water,4391,,,recallproc1
D_JOL A 2,153,1,BlockProc1,Block1,144,,,Bug - ?,,27,,,,,wasp,4870,,,recallproc1
D_JOL A 2,153,1,BlockProc1,Block1,145,,,Law - ?,,29,,,,,attorney,4250,,,recallproc1
D_JOL A 2,153,1,BlockProc1,Block1,146,,,Kidney - ?,,48,,,,,liver,4143,,,recallproc1
D_JOL A 2,153,1,BlockProc1,Block1,147,,,Valley - ?,,77,,,,,mountain,8496,,,recallproc1
D_JOL A 2,153,1,BlockProc1,Block1,148,,,Hygiene - ?,,12,,,,,clean,4795,,,recallproc1
D_JOL A 2,153,1,BlockProc1,Block1,149,,,Grill - ?,,47,,,,,food,5402,,,recallproc1
D_JOL A 2,153,1,BlockProc1,Block1,150,,,Due - ?,,41,,,,,assignment,5304,,,recallproc1
D_JOL A 2,153,1,BlockProc1,Block1,151,,,Bridge - ?,,13,,,,,water,7586,,,recallproc1
D_JOL A 2,153,1,BlockProc1,Block1,152,,,Sentence - ?,,26,,,,,words,4801,,,recallproc1
D_JOL A 2,153,1,BlockProc1,Block1,153,,,Fix - ?,,70,,,,,repair,5095,,,recallproc1
D_JOL A 2,153,1,BlockProc1,Block1,154,,,Dietary - ?,,62,,,,,meal,7218,,,recallproc1
D_JOL A 2,153,1,BlockProc1,Block1,155,,,Hunger - ?,,35,,,,,food,5000,,,recallproc1
D_JOL A 2,153,1,BlockProc1,Block1,156,,,Herd - ?,,17,,,,,cows,4591,,,recallproc1
D_JOL A 2,153,1,BlockProc1,Block1,157,,,Number - ?,,42,,,,,math,8518,,,recallproc1
D_JOL A 2,153,1,BlockProc1,Block1,158,,,Credit - ?,,18,,,,,card,3191,,,recallproc1
D_JOL A 2,153,1,BlockProc1,Block1,159,,,Lettuce - ?,,56,,,,,salad,4655,,,recallproc1
D_JOL A 2,153,1,BlockProc1,Block1,160,,,Swan - ?,,9,,,,,bird,2915,,,recallproc1
D_JOL A 2,153,1,BlockProc1,Block1,161,,,King - ?,,80,,,,,castle,4053,,,recallproc1
D_JOL A 2,153,1,BlockProc1,Block1,162,,,Choice - ?,,54,,,,,option,8778,,,recallproc1
D_JOL A 2,153,1,BlockProc1,Block1,163,,,Death - ?,,67,,,,,life,4033,,,recallproc1
D_JOL A 2,153,1,BlockProc1,Block1,164,,,Sleep - ?,,36,,,,,bed,4695,,,recallproc1
D_JOL A 2,153,1,BlockProc1,Block1,165,,,Artery - ?,,69,,,,,heart,6458,,,recallproc1
D_JOL A 2,153,1,BlockProc1,Block1,166,,,Happy - ?,,72,,,,,good,6998,,,recallproc1
D_JOL A 2,153,1,BlockProc1,Block1,167,,,Soon - ?,,65,,,,,near,4477,,,recallproc1
D_JOL A 2,153,1,BlockProc1,Block1,168,,,Height - ?,,25,,,,,tall,5929,,,recallproc1
D_JOL A 2,153,1,BlockProc1,Block1,169,,,Full - ?,,21,,,,,abundent,16122,,,recallproc1
D_JOL A 2,153,1,BlockProc1,Block1,170,,,Debate - ?,,68,,,,,argue,5891,,,recallproc1
D_JOL A 2,153,1,BlockProc2,Block2,1,,,Malt - Chocolate,,5,,,,,,,,,StudyProc4
D_JOL A 2,153,1,BlockProc2,Block2,2,,,Sheriff - Police,,1,,,,,,,,,StudyProc4
D_JOL A 2,153,1,BlockProc2,Block2,3,,,Hide - Scare,,2,,,,,,,,,StudyProc4
D_JOL A 2,153,1,BlockProc2,Block2,4,,,Essay - Write,,4,,,,,,,,,StudyProc4
D_JOL A 2,153,1,BlockProc2,Block2,5,,,Disintegrate - Disappear,,3,,,,,,,,,StudyProc4
D_JOL A 2,153,1,BlockProc2,Block2,6,,8,Litter - Trash,F,8,,,75,6830,,,,,StudyProc5
D_JOL A 2,153,1,BlockProc2,Block2,7,,74,Lease - Toil,U,74,,,10,4317,,,,,StudyProc5
D_JOL A 2,153,1,BlockProc2,Block2,8,,56,Flea - Tick,S,56,,,90,8695,,,,,StudyProc5
D_JOL A 2,153,1,BlockProc2,Block2,9,,73,Moat - Clear,U,73,,,0,11095,,,,,StudyProc5
D_JOL A 2,153,1,BlockProc2,Block2,10,,26,Thread - Thimble,B,26,,,60,2997,,,,,StudyProc5
D_JOL A 2,153,1,BlockProc2,Block2,11,,75,Loan - Sign,U,75,,,20,3035,,,,,StudyProc5
D_JOL A 2,153,1,BlockProc2,Block2,12,,78,Mirror - Children,U,78,,,0,16776,,,,,StudyProc5
D_JOL A 2,153,1,BlockProc2,Block2,13,,2,Clue - Game,F,2,,,80,2144,,,,,StudyProc5
D_JOL A 2,153,1,BlockProc2,Block2,14,,35,Fish - Sardine,B,35,,,80,2725,,,,,StudyProc5
D_JOL A 2,153,1,BlockProc2,Block2,15,,6,Adjourn - End,F,6,,,90,2769,,,,,StudyProc5
D_JOL A 2,153,1,BlockProc2,Block2,16,,30,Best - Favorite,B,30,,,70,3849,,,,,StudyProc5
D_JOL A 2,153,1,BlockProc2,Block2,17,,3,Cactus - Plant,F,3,,,80,3346,,,,,StudyProc5
D_JOL A 2,153,1,BlockProc2,Block2,18,,19,Chill - Cold,F,19,,,75,3000,,,,,StudyProc5
D_JOL A 2,153,1,BlockProc2,Block2,19,,52,Safety - Seatbelt,S,52,,,75,7148,,,,,StudyProc5
D_JOL A 2,153,1,BlockProc2,Block2,20,,76,Both - Ounce,U,76,,,5,4464,,,,,StudyProc5
D_JOL A 2,153,1,BlockProc2,Block2,21,,63,Give - Steak,U,63,,,0,3139,,,,,StudyProc5
D_JOL A 2,153,1,BlockProc2,Block2,22,,16,Dine - Eat,F,16,,,70,3510,,,,,StudyProc5
D_JOL A 2,153,1,BlockProc2,Block2,23,,28,Pop - Balloon,B,28,,,60,2796,,,,,StudyProc5
D_JOL A 2,153,1,BlockProc2,Block2,24,,24,Bird - Penguin,B,24,,,75,5375,,,,,StudyProc5
D_JOL A 2,153,1,BlockProc2,Block2,25,,10,Scalp - Head,F,10,,,60,3413,,,,,StudyProc5
D_JOL A 2,153,1,BlockProc2,Block2,26,,37,Money - Banker,B,37,,,60,2794,,,,,StudyProc5
D_JOL A 2,153,1,BlockProc2,Block2,27,,53,Truth - Lie,S,53,,,90,2776,,,,,StudyProc5
D_JOL A 2,153,1,BlockProc2,Block2,28,,60,Sun - Tan,S,60,,,90,1717,,,,,StudyProc5
D_JOL A 2,153,1,BlockProc2,Block2,29,,13,Mule - Donkey,F,13,,,80,1483,,,,,StudyProc5
D_JOL A 2,153,1,BlockProc2,Block2,30,,51,Dry - Wet,S,51,,,75,2254,,,,,StudyProc5
D_JOL A 2,153,1,BlockProc2,Block2,31,,61,Justice - Maroon,U,61,,,5,3266,,,,,StudyProc5
D_JOL A 2,153,1,BlockProc2,Block2,32,,48,Water - Drink,S,48,,,80,2750,,,,,StudyProc5
D_JOL A 2,153,1,BlockProc2,Block2,33,,80,Charm - Vehicle,U,80,,,5,4857,,,,,StudyProc5
D_JOL A 2,153,1,BlockProc2,Block2,34,,18,Feud - Fight,F,18,,,75,3110,,,,,StudyProc5
D_JOL A 2,153,1,BlockProc2,Block2,35,,15,Incense - Smell,F,15,,,70,8585,,,,,StudyProc5
D_JOL A 2,153,1,BlockProc2,Block2,36,,14,Document - Paper,F,14,,,80,2004,,,,,StudyProc5
D_JOL A 2,153,1,BlockProc2,Block2,37,,59,Tantrum - Temper,S,59,,,80,2270,,,,,StudyProc5
D_JOL A 2,153,1,BlockProc2,Block2,38,,71,Name - Hate,U,71,,,50,1847,,,,,StudyProc5
D_JOL A 2,153,1,BlockProc2,Block2,39,,54,Phone - Communication,S,54,,,60,3590,,,,,StudyProc5
D_JOL A 2,153,1,BlockProc2,Block2,40,,32,Glass - Breakable,B,32,,,80,6000,,,,,StudyProc5
D_JOL A 2,153,1,BlockProc2,Block2,41,,44,Candle - Wax,S,44,,,90,3506,,,,,StudyProc5
D_JOL A 2,153,1,BlockProc2,Block2,42,,49,Earth - Ground,S,49,,,60,1982,,,,,StudyProc5
D_JOL A 2,153,1,BlockProc2,Block2,43,,58,Own - Have,S,58,,,70,2136,,,,,StudyProc5
D_JOL A 2,153,1,BlockProc2,Block2,44,,40,Fight - Brawl,B,40,,,65,6409,,,,,StudyProc5
D_JOL A 2,153,1,BlockProc2,Block2,45,,34,Plane - Aircraft,B,34,,,80,6584,,,,,StudyProc5
D_JOL A 2,153,1,BlockProc2,Block2,46,,77,Temperature - Morning,U,77,,,20,4977,,,,,StudyProc5
D_JOL A 2,153,1,BlockProc2,Block2,47,,55,Rod - Reel,S,55,,,60,1998,,,,,StudyProc5
D_JOL A 2,153,1,BlockProc2,Block2,48,,38,Honest - Truthful,B,38,,,75,3309,,,,,StudyProc5
D_JOL A 2,153,1,BlockProc2,Block2,49,,20,Affection - Love,F,20,,,75,11883,,,,,StudyProc5
D_JOL A 2,153,1,BlockProc2,Block2,50,,5,Detective - Mystery,F,5,,,80,8301,,,,,StudyProc5
D_JOL A 2,153,1,BlockProc2,Block2,51,,57,Loud - Noise,S,57,,,70,12514,,,,,StudyProc5
D_JOL A 2,153,1,BlockProc2,Block2,52,,12,Chop - Cut,F,12,,,80,1994,,,,,StudyProc5
D_JOL A 2,153,1,BlockProc2,Block2,53,,11,Driver - Car,F,11,,,60,4345,,,,,StudyProc5
D_JOL A 2,153,1,BlockProc2,Block2,54,,17,Shears - Scissors,F,17,,,50,2902,,,,,StudyProc5
D_JOL A 2,153,1,BlockProc2,Block2,55,,46,Element - Carbon,S,46,,,50,2985,,,,,StudyProc5
D_JOL A 2,153,1,BlockProc2,Block2,56,,79,Main - Scar,U,79,,,5,4505,,,,,StudyProc5
D_JOL A 2,153,1,BlockProc2,Block2,57,,23,Bad - Villain,B,23,,,60,2717,,,,,StudyProc5
D_JOL A 2,153,1,BlockProc2,Block2,58,,50,Alone - Lonely,S,50,,,70,1460,,,,,StudyProc5
D_JOL A 2,153,1,BlockProc2,Block2,59,,27,Even - Revenge,B,27,,,40,2917,,,,,StudyProc5
D_JOL A 2,153,1,BlockProc2,Block2,60,,1,Extension - Long,F,1,,,30,1378,,,,,StudyProc5
D_JOL A 2,153,1,BlockProc2,Block2,61,,41,Razor - Shave,S,41,,,60,2576,,,,,StudyProc5
D_JOL A 2,153,1,BlockProc2,Block2,62,,45,Wrist - Bracelet,S,45,,,65,3618,,,,,StudyProc5
D_JOL A 2,153,1,BlockProc2,Block2,63,,67,Shell - Snake,U,67,,,30,5680,,,,,StudyProc5
D_JOL A 2,153,1,BlockProc2,Block2,64,,47,Gone - Away,S,47,,,50,3369,,,,,StudyProc5
D_JOL A 2,153,1,BlockProc2,Block2,65,,29,Fruit - Strawberry,B,29,,,75,3745,,,,,StudyProc5
D_JOL A 2,153,1,BlockProc2,Block2,66,,39,Sleep - Nap,B,39,,,75,4196,,,,,StudyProc5
D_JOL A 2,153,1,BlockProc2,Block2,67,,4,Shoelace - Tie,F,4,,,60,3542,,,,,StudyProc5
D_JOL A 2,153,1,BlockProc2,Block2,68,,7,Furry - Dog,F,7,,,75,2403,,,,,StudyProc5
D_JOL A 2,153,1,BlockProc2,Block2,69,,68,Listen - Fiction,U,68,,,15,2090,,,,,StudyProc5
D_JOL A 2,153,1,BlockProc2,Block2,70,,36,Baseball - League,B,36,,,70,5084,,,,,StudyProc5
D_JOL A 2,153,1,BlockProc2,Block2,71,,66,Crackle - Able,U,66,,,5,3624,,,,,StudyProc5
D_JOL A 2,153,1,BlockProc2,Block2,72,,65,Meat - Obtain,U,65,,,5,10903,,,,,StudyProc5
D_JOL A 2,153,1,BlockProc2,Block2,73,,42,Rights - Equal,S,42,,,70,2926,,,,,StudyProc5
D_JOL A 2,153,1,BlockProc2,Block2,74,,25,Star - Actress,B,25,,,75,2756,,,,,StudyProc5
D_JOL A 2,153,1,BlockProc2,Block2,75,,43,Mason - Jar,S,43,,,80,4509,,,,,StudyProc5
D_JOL A 2,153,1,BlockProc2,Block2,76,,33,Dead - Coffin,B,33,,,60,5264,,,,,StudyProc5
D_JOL A 2,153,1,BlockProc2,Block2,77,,9,Cherry - Red,F,9,,,60,2722,,,,,StudyProc5
D_JOL A 2,153,1,BlockProc2,Block2,78,,22,Car - Windshield,B,22,,,60,2697,,,,,StudyProc5
D_JOL A 2,153,1,BlockProc2,Block2,79,,64,Maze - Election,U,64,,,20,2507,,,,,StudyProc5
D_JOL A 2,153,1,BlockProc2,Block2,80,,21,Turn - Flip,B,21,,,50,3556,,,,,StudyProc5
D_JOL A 2,153,1,BlockProc2,Block2,81,,69,Keys - Joke,U,69,,,10,4718,,,,,StudyProc5
D_JOL A 2,153,1,BlockProc2,Block2,82,,31,Cat - Panther,B,31,,,60,1585,,,,,StudyProc5
D_JOL A 2,153,1,BlockProc2,Block2,83,,62,Stretch - Cloth,U,62,,,40,5227,,,,,StudyProc5
D_JOL A 2,153,1,BlockProc2,Block2,84,,72,Fuzzy - Bang,U,72,,,5,4172,,,,,StudyProc5
D_JOL A 2,153,1,BlockProc2,Block2,85,,70,Cake - Clothes,U,70,,,0,5802,,,,,StudyProc5
D_JOL A 2,153,1,BlockProc2,Block2,86,,,Mind - Matter,,2,,,,,,,,,StudyProc6
D_JOL A 2,153,1,BlockProc2,Block2,87,,,Deciet - Cheat,,1,,,,,,,,,StudyProc6
D_JOL A 2,153,1,BlockProc2,Block2,88,,,Magician - Magic,,4,,,,,,,,,StudyProc6
D_JOL A 2,153,1,BlockProc2,Block2,89,,,Contest - Competition,,5,,,,,,,,,StudyProc6
D_JOL A 2,153,1,BlockProc2,Block2,90,,,Deaf - Hear,,3,,,,,,,,,StudyProc6
D_JOL A 2,153,1,BlockProc2,Block2,91,,,Loan - ?,,76,,,,,,,give,7509,recallproc2
D_JOL A 2,153,1,BlockProc2,Block2,92,,,Dry - ?,,51,,,,,,,wet,5055,recallproc2
D_JOL A 2,153,1,BlockProc2,Block2,93,,,Litter - ?,,8,,,,,,,trash,8603,recallproc2
D_JOL A 2,153,1,BlockProc2,Block2,94,,,Temperature - ?,,78,,,,,,,morning,8210,recallproc2
D_JOL A 2,153,1,BlockProc2,Block2,95,,,Star - ?,,25,,,,,,,night,4113,recallproc2
D_JOL A 2,153,1,BlockProc2,Block2,96,,,Crackle - ?,,67,,,,,,,pop,7538,recallproc2
D_JOL A 2,153,1,BlockProc2,Block2,97,,,Main - ?,,80,,,,,,,event,5235,recallproc2
D_JOL A 2,153,1,BlockProc2,Block2,98,,,Both - ?,,77,,,,,,,each,4176,recallproc2
D_JOL A 2,153,1,BlockProc2,Block2,99,,,Turn - ?,,21,,,,,,,flip,3536,recallproc2
D_JOL A 2,153,1,BlockProc2,Block2,100,,,Gone - ?,,47,,,,,,,away,3433,recallproc2
D_JOL A 2,153,1,BlockProc2,Block2,101,,,Meat - ?,,66,,,,,,,ball,4150,recallproc2
D_JOL A 2,153,1,BlockProc2,Block2,102,,,Own - ?,,58,,,,,,,have,5496,recallproc2
D_JOL A 2,153,1,BlockProc2,Block2,103,,,Keys - ?,,70,,,,,,,locks,6698,recallproc2
D_JOL A 2,153,1,BlockProc2,Block2,104,,,Pop - ?,,28,,,,,,,open,8661,recallproc2
D_JOL A 2,153,1,BlockProc2,Block2,105,,,Furry - ?,,7,,,,,,,dog,3513,recallproc2
D_JOL A 2,153,1,BlockProc2,Block2,106,,,Fish - ?,,35,,,,,,,sardine,6204,recallproc2
D_JOL A 2,153,1,BlockProc2,Block2,107,,,Affection - ?,,20,,,,,,,love,2442,recallproc2
D_JOL A 2,153,1,BlockProc2,Block2,108,,,Chop - ?,,12,,,,,,,cut,5607,recallproc2
D_JOL A 2,153,1,BlockProc2,Block2,109,,,Mason - ?,,43,,,,,,,jar,2398,recallproc2
D_JOL A 2,153,1,BlockProc2,Block2,110,,,Money - ?,,37,,,,,,,buy,10981,recallproc2
D_JOL A 2,153,1,BlockProc2,Block2,111,,,Flea - ?,,56,,,,,,,tick,6764,recallproc2
D_JOL A 2,153,1,BlockProc2,Block2,112,,,Rights - ?,,42,,,,,,,civil,8604,recallproc2
D_JOL A 2,153,1,BlockProc2,Block2,113,,,Chill - ?,,19,,,,,,,cold,4730,recallproc2
D_JOL A 2,153,1,BlockProc2,Block2,114,,,Fight - ?,,40,,,,,,,brawl,6052,recallproc2
D_JOL A 2,153,1,BlockProc2,Block2,115,,,Water,,48,,,,,,,lake,7832,recallproc2
D_JOL A 2,153,1,BlockProc2,Block2,116,,,Clue - ?,,2,,,,,,,game,2806,recallproc2
D_JOL A 2,153,1,BlockProc2,Block2,117,,,Adjourn - ?,,6,,,,,,,end,2396,recallproc2
D_JOL A 2,153,1,BlockProc2,Block2,118,,,Cake - ?,,71,,,,,,,batter,4155,recallproc2
D_JOL A 2,153,1,BlockProc2,Block2,119,,,Safety - ?,,52,,,,,,,procedure,13100,recallproc2
D_JOL A 2,153,1,BlockProc2,Block2,120,,,Incense - ?,,15,,,,,,,smell,2894,recallproc2
D_JOL A 2,153,1,BlockProc2,Block2,121,,,Shell - ?,,68,,,,,,,snake,5185,recallproc2
D_JOL A 2,153,1,BlockProc2,Block2,122,,,Shoelace - ?,,4,,,,,,,tie,2304,recallproc2
D_JOL A 2,153,1,BlockProc2,Block2,123,,,Mirror - ?,,79,,,,,,,face,7675,recallproc2
D_JOL A 2,153,1,BlockProc2,Block2,124,,,Rod - ?,,55,,,,,,,reel,4870,recallproc2
D_JOL A 2,153,1,BlockProc2,Block2,125,,,Best - ?,,30,,,,,,,favorite,8346,recallproc2
D_JOL A 2,153,1,BlockProc2,Block2,126,,,Dine - ?,,16,,,,,,,eat,6715,recallproc2
D_JOL A 2,153,1,BlockProc2,Block2,127,,,Cat - ?,,31,,,,,,,soft,4173,recallproc2
D_JOL A 2,153,1,BlockProc2,Block2,128,,,Document - ?,,14,,,,,,,paper,7533,recallproc2
D_JOL A 2,153,1,BlockProc2,Block2,129,,,Extension - ?,,1,,,,,,,long,3326,recallproc2
D_JOL A 2,153,1,BlockProc2,Block2,130,,,Shears - ?,,17,,,,,,,scissors,7448,recallproc2
D_JOL A 2,153,1,BlockProc2,Block2,131,,,Fruit - ?,,29,,,,,,,strawberry,4997,recallproc2
D_JOL A 2,153,1,BlockProc2,Block2,132,,,Maze - ?,,64,,,,,,,turn,9676,recallproc2
D_JOL A 2,153,1,BlockProc2,Block2,133,,,Razor - ?,,41,,,,,,,shave,3727,recallproc2
D_JOL A 2,153,1,BlockProc2,Block2,134,,,Thread - ?,,26,,,,,,,thimble,4553,recallproc2
D_JOL A 2,153,1,BlockProc2,Block2,135,,,Honest - ?,,38,,,,,,,truthful,6753,recallproc2
D_JOL A 2,153,1,BlockProc2,Block2,136,,,Wrist - ?,,45,,,,,,,wite,9561,recallproc2
D_JOL A 2,153,1,BlockProc2,Block2,137,,,Sun - ?,,60,,,,,,,hot,3353,recallproc2
D_JOL A 2,153,1,BlockProc2,Block2,138,,,Baseball - ?,,36,,,,,,,league,2962,recallproc2
D_JOL A 2,153,1,BlockProc2,Block2,139,,,Sleep - ?,,39,,,,,,,bed,3202,recallproc2
D_JOL A 2,153,1,BlockProc2,Block2,140,,,Cherry - ?,,9,,,,,,,red,1977,recallproc2
D_JOL A 2,153,1,BlockProc2,Block2,141,,,Phone - ?,,54,,,,,,,call,3825,recallproc2
D_JOL A 2,153,1,BlockProc2,Block2,142,,,Plane - ?,,34,,,,,,,pilot,3134,recallproc2
D_JOL A 2,153,1,BlockProc2,Block2,143,,,Car - ?,,22,,,,,,,drive,3727,recallproc2
D_JOL A 2,153,1,BlockProc2,Block2,144,,,Driver - ?,,11,,,,,,,car,6313,recallproc2
D_JOL A 2,153,1,BlockProc2,Block2,145,,,Bird - ?,,24,,,,,,,sky,7835,recallproc2
D_JOL A 2,153,1,BlockProc2,Block2,146,,,Dead - ?,,33,,,,,,,coffin,4912,recallproc2
D_JOL A 2,153,1,BlockProc2,Block2,147,,,Element - ?,,46,,,,,,,carbon,6427,recallproc2
D_JOL A 2,153,1,BlockProc2,Block2,148,,,Alone - ?,,50,,,,,,,lonely,3416,recallproc2
D_JOL A 2,153,1,BlockProc2,Block2,149,,,Scalp - ?,,10,,,,,,,head,4143,recallproc2
D_JOL A 2,153,1,BlockProc2,Block2,150,,,Lease - ?,,75,,,,,,,remt,8408,recallproc2
D_JOL A 2,153,1,BlockProc2,Block2,151,,,Tantrum - ?,,59,,,,,,,fit,8382,recallproc2
D_JOL A 2,153,1,BlockProc2,Block2,152,,,Even - ?,,27,,,,,,,odd,2725,recallproc2
D_JOL A 2,153,1,BlockProc2,Block2,153,,,Bad - ?,,23,,,,,,,villian,8335,recallproc2
D_JOL A 2,153,1,BlockProc2,Block2,154,,,Detective - ?,,5,,,,,,,mystery,4744,recallproc2
D_JOL A 2,153,1,BlockProc2,Block2,155,,,Truth - ?,,53,,,,,,,lie,3265,recallproc2
D_JOL A 2,153,1,BlockProc2,Block2,156,,,Candle - ?,,44,,,,,,,wax,2477,recallproc2
D_JOL A 2,153,1,BlockProc2,Block2,157,,,Loud - ?,,57,,,,,,,noise,4689,recallproc2
D_JOL A 2,153,1,BlockProc2,Block2,158,,,Vehicle - ?,,65,,,,,,,drive,4636,recallproc2
D_JOL A 2,153,1,BlockProc2,Block2,159,,,Stretch - ?,,62,,,,,,,long,5153,recallproc2
D_JOL A 2,153,1,BlockProc2,Block2,160,,,Moat - ?,,74,,,,,,,castle,4681,recallproc2
D_JOL A 2,153,1,BlockProc2,Block2,161,,,Mule - ?,,13,,,,,,,donkey,3701,recallproc2
D_JOL A 2,153,1,BlockProc2,Block2,162,,,Name - ?,,72,,,,,,,person,7912,recallproc2
D_JOL A 2,153,1,BlockProc2,Block2,163,,,Feud - ?,,18,,,,,,,argument,5250,recallproc2
D_JOL A 2,153,1,BlockProc2,Block2,164,,,Listen - ?,,69,,,,,,,hear,5015,recallproc2
D_JOL A 2,153,1,BlockProc2,Block2,165,,,Earth - ?,,49,,,,,,,ground,3901,recallproc2
D_JOL A 2,153,1,BlockProc2,Block2,166,,,Justice - ?,,61,,,,,,,law,4599,recallproc2
D_JOL A 2,153,1,BlockProc2,Block2,167,,,Cactus - ?,,3,,,,,,,plant,4534,recallproc2
D_JOL A 2,153,1,BlockProc2,Block2,168,,,Fuzzy - ?,,73,,,,,,,bear,8303,recallproc2
D_JOL A 2,153,1,BlockProc2,Block2,169,,,Give - ?,,63,,,,,,,take,2698,recallproc2
D_JOL A 2,153,1,BlockProc2,Block2,170,,,Glass - ?,,32,,,,,,,breakable,6069,recallproc2
D_JOL B 2,142,1,BlockProc2,Block2,1,,,Disintegrate - Disappear,,3,,,,,,,,,StudyProc4
D_JOL B 2,142,1,BlockProc2,Block2,2,,,Essay - Write,,4,,,,,,,,,StudyProc4
D_JOL B 2,142,1,BlockProc2,Block2,3,,,Sheriff - Police,,1,,,,,,,,,StudyProc4
D_JOL B 2,142,1,BlockProc2,Block2,4,,,Hide - Scare,,2,,,,,,,,,StudyProc4
D_JOL B 2,142,1,BlockProc2,Block2,5,,,Malt - Chocolate,,5,,,,,,,,,StudyProc4
D_JOL B 2,142,1,BlockProc2,Block2,6,,16,Dine - Eat,F,16,,,66,6026,,,,,StudyProc5
D_JOL B 2,142,1,BlockProc2,Block2,7,,55,Rod - Reel,S,55,,,87,3890,,,,,StudyProc5
D_JOL B 2,142,1,BlockProc2,Block2,8,,15,Incense - Smell,F,15,,,89,4379,,,,,StudyProc5
D_JOL B 2,142,1,BlockProc2,Block2,9,,11,Driver - Car,F,11,,,92,4351,,,,,StudyProc5
D_JOL B 2,142,1,BlockProc2,Block2,10,,79,Main - Scar,U,79,,,66,2432,,,,,StudyProc5
D_JOL B 2,142,1,BlockProc2,Block2,11,,9,Cherry - Red,F,9,,,85,4748,,,,,StudyProc5
D_JOL B 2,142,1,BlockProc2,Block2,12,,4,Shoelace - Tie,F,4,,,89,2752,,,,,StudyProc5
D_JOL B 2,142,1,BlockProc2,Block2,13,,36,Baseball - League,B,36,,,,189,,,,,StudyProc5
D_JOL B 2,142,1,BlockProc2,Block2,14,,22,Car - Windshield,B,22,,,78,3688,,,,,StudyProc5
D_JOL B 2,142,1,BlockProc2,Block2,15,,50,Alone - Lonely,S,50,,,99,2916,,,,,StudyProc5
D_JOL B 2,142,1,BlockProc2,Block2,16,,19,Chill - Cold,F,19,,,98,3471,,,,,StudyProc5
D_JOL B 2,142,1,BlockProc2,Block2,17,,75,Loan - Sign,U,75,,,49,4877,,,,,StudyProc5
D_JOL B 2,142,1,BlockProc2,Block2,18,,26,Thread - Thimble,B,26,,,66,2816,,,,,StudyProc5
D_JOL B 2,142,1,BlockProc2,Block2,19,,74,Lease - Toil,U,74,,,42,3977,,,,,StudyProc5
D_JOL B 2,142,1,BlockProc2,Block2,20,,24,Bird - Penguin,B,24,,,36,5109,,,,,StudyProc5
D_JOL B 2,142,1,BlockProc2,Block2,21,,7,Furry - Dog,F,7,,,94,4069,,,,,StudyProc5
D_JOL B 2,142,1,BlockProc2,Block2,22,,39,Sleep - Nap,B,39,,,100,3127,,,,,StudyProc5
D_JOL B 2,142,1,BlockProc2,Block2,23,,63,Give - Steak,U,63,,,32,3455,,,,,StudyProc5
D_JOL B 2,142,1,BlockProc2,Block2,24,,33,Dead - Coffin,B,33,,,99,2425,,,,,StudyProc5
D_JOL B 2,142,1,BlockProc2,Block2,25,,44,Candle - Wax,S,44,,,52,5795,,,,,StudyProc5
D_JOL B 2,142,1,BlockProc2,Block2,26,,23,Bad - Villain,B,23,,,99,2070,,,,,StudyProc5
D_JOL B 2,142,1,BlockProc2,Block2,27,,69,Keys - Joke,U,69,,,25,5024,,,,,StudyProc5
D_JOL B 2,142,1,BlockProc2,Block2,28,,72,Fuzzy - Bang,U,72,,,46,3535,,,,,StudyProc5
D_JOL B 2,142,1,BlockProc2,Block2,29,,58,Own - Have,S,58,,,79,4078,,,,,StudyProc5
D_JOL B 2,142,1,BlockProc2,Block2,30,,20,Affection - Love,F,20,,,100,2564,,,,,StudyProc5
D_JOL B 2,142,1,BlockProc2,Block2,31,,5,Detective - Mystery,F,5,,,100,2103,,,,,StudyProc5
D_JOL B 2,142,1,BlockProc2,Block2,32,,29,Fruit - Strawberry,B,29,,,47,2983,,,,,StudyProc5
D_JOL B 2,142,1,BlockProc2,Block2,33,,54,Phone - Communication,S,54,,,100,1681,,,,,StudyProc5
D_JOL B 2,142,1,BlockProc2,Block2,34,,70,Cake - Clothes,U,70,,,23,2700,,,,,StudyProc5
D_JOL B 2,142,1,BlockProc2,Block2,35,,78,Mirror - Children,U,78,,,39,4417,,,,,StudyProc5
D_JOL B 2,142,1,BlockProc2,Block2,36,,25,Star - Actress,B,25,,,89,2055,,,,,StudyProc5
D_JOL B 2,142,1,BlockProc2,Block2,37,,6,Adjourn - End,F,6,,,66,1745,,,,,StudyProc5
D_JOL B 2,142,1,BlockProc2,Block2,38,,13,Mule - Donkey,F,13,,,99,2723,,,,,StudyProc5
D_JOL B 2,142,1,BlockProc2,Block2,39,,12,Chop - Cut,F,12,,,99,2823,,,,,StudyProc5
D_JOL B 2,142,1,BlockProc2,Block2,40,,32,Glass - Breakable,B,32,,,100,1729,,,,,StudyProc5
D_JOL B 2,142,1,BlockProc2,Block2,41,,41,Razor - Shave,S,41,,,98,2846,,,,,StudyProc5
D_JOL B 2,142,1,BlockProc2,Block2,42,,47,Gone - Away,S,47,,,92,3520,,,,,StudyProc5
D_JOL B 2,142,1,BlockProc2,Block2,43,,80,Charm - Vehicle,U,80,,,32,2723,,,,,StudyProc5
D_JOL B 2,142,1,BlockProc2,Block2,44,,68,Listen - Fiction,U,68,,,26,2283,,,,,StudyProc5
D_JOL B 2,142,1,BlockProc2,Block2,45,,64,Maze - Election,U,64,,,10,2733,,,,,StudyProc5
D_JOL B 2,142,1,BlockProc2,Block2,46,,48,Water - Drink,S,48,,,100,1354,,,,,StudyProc5
D_JOL B 2,142,1,BlockProc2,Block2,47,,21,Turn - Flip,B,21,,,87,1931,,,,,StudyProc5
D_JOL B 2,142,1,BlockProc2,Block2,48,,1,Extension - Long,F,1,,,99,3304,,,,,StudyProc5
D_JOL B 2,142,1,BlockProc2,Block2,49,,49,Earth - Ground,S,49,,,83,3650,,,,,StudyProc5
D_JOL B 2,142,1,BlockProc2,Block2,50,,46,Element - Carbon,S,46,,,43,2662,,,,,StudyProc5
D_JOL B 2,142,1,BlockProc2,Block2,51,,51,Dry - Wet,S,51,,,48,3880,,,,,StudyProc5
D_JOL B 2,142,1,BlockProc2,Block2,52,,27,Even - Revenge,B,27,,,50,2377,,,,,StudyProc5
D_JOL B 2,142,1,BlockProc2,Block2,53,,45,Wrist - Bracelet,S,45,,,92,3789,,,,,StudyProc5
D_JOL B 2,142,1,BlockProc2,Block2,54,,71,Name - Hate,U,71,,,12,2452,,,,,StudyProc5
D_JOL B 2,142,1,BlockProc2,Block2,55,,34,Plane - Aircraft,B,34,,,76,2763,,,,,StudyProc5
D_JOL B 2,142,1,BlockProc2,Block2,56,,43,Mason - Jar,S,43,,,100,1108,,,,,StudyProc5
D_JOL B 2,142,1,BlockProc2,Block2,57,,35,Fish - Sardine,B,35,,,59,2878,,,,,StudyProc5
D_JOL B 2,142,1,BlockProc2,Block2,58,,62,Stretch - Cloth,U,62,,,11,2125,,,,,StudyProc5
D_JOL B 2,142,1,BlockProc2,Block2,59,,73,Moat - Clear,U,73,,,5,2534,,,,,StudyProc5
D_JOL B 2,142,1,BlockProc2,Block2,60,,76,Both - Ounce,U,76,,,10,2729,,,,,StudyProc5
D_JOL B 2,142,1,BlockProc2,Block2,61,,38,Honest - Truthful,B,38,,,99,5199,,,,,StudyProc5
D_JOL B 2,142,1,BlockProc2,Block2,62,,52,Safety - Seatbelt,S,52,,,90,2490,,,,,StudyProc5
D_JOL B 2,142,1,BlockProc2,Block2,63,,66,Crackle - Able,U,66,,,34,2790,,,,,StudyProc5
D_JOL B 2,142,1,BlockProc2,Block2,64,,31,Cat - Panther,B,31,,,50,1365,,,,,StudyProc5
D_JOL B 2,142,1,BlockProc2,Block2,65,,53,Truth - Lie,S,53,,,50,2289,,,,,StudyProc5
D_JOL B 2,142,1,BlockProc2,Block2,66,,18,Feud - Fight,F,18,,,89,2622,,,,,StudyProc5
D_JOL B 2,142,1,BlockProc2,Block2,67,,42,Rights - Equal,S,42,,,100,1612,,,,,StudyProc5
D_JOL B 2,142,1,BlockProc2,Block2,68,,56,Flea - Tick,S,56,,,100,1059,,,,,StudyProc5
D_JOL B 2,142,1,BlockProc2,Block2,69,,28,Pop - Balloon,B,28,,,85,3228,,,,,StudyProc5
D_JOL B 2,142,1,BlockProc2,Block2,70,,59,Tantrum - Temper,S,59,,,63,2414,,,,,StudyProc5
D_JOL B 2,142,1,BlockProc2,Block2,71,,37,Money - Banker,B,37,,,38,2330,,,,,StudyProc5
D_JOL B 2,142,1,BlockProc2,Block2,72,,14,Document - Paper,F,14,,,77,3679,,,,,StudyProc5
D_JOL B 2,142,1,BlockProc2,Block2,73,,2,Clue - Game,F,2,,,10,3085,,,,,StudyProc5
D_JOL B 2,142,1,BlockProc2,Block2,74,,3,Cactus - Plant,F,3,,,62,2934,,,,,StudyProc5
D_JOL B 2,142,1,BlockProc2,Block2,75,,65,Meat - Obtain,U,65,,,8,4196,,,,,StudyProc5
D_JOL B 2,142,1,BlockProc2,Block2,76,,57,Loud - Noise,S,57,,,54,2804,,,,,StudyProc5
D_JOL B 2,142,1,BlockProc2,Block2,77,,8,Litter - Trash,F,8,,,99,1617,,,,,StudyProc5
D_JOL B 2,142,1,BlockProc2,Block2,78,,60,Sun - Tan,S,60,,,79,2965,,,,,StudyProc5
D_JOL B 2,142,1,BlockProc2,Block2,79,,77,Temperature - Morning,U,77,,,57,2568,,,,,StudyProc5
D_JOL B 2,142,1,BlockProc2,Block2,80,,17,Shears - Scissors,F,17,,,100,1335,,,,,StudyProc5
D_JOL B 2,142,1,BlockProc2,Block2,81,,67,Shell - Snake,U,67,,,28,2012,,,,,StudyProc5
D_JOL B 2,142,1,BlockProc2,Block2,82,,10,Scalp - Head,F,10,,,93,1811,,,,,StudyProc5
D_JOL B 2,142,1,BlockProc2,Block2,83,,40,Fight - Brawl,B,40,,,100,1857,,,,,StudyProc5
D_JOL B 2,142,1,BlockProc2,Block2,84,,30,Best - Favorite,B,30,,,99,2301,,,,,StudyProc5
D_JOL B 2,142,1,BlockProc2,Block2,85,,61,Justice - Maroon,U,61,,,49,3431,,,,,StudyProc5
D_JOL B 2,142,1,BlockProc2,Block2,86,,,Mind - Matter,,2,,,,,,,,,StudyProc6
D_JOL B 2,142,1,BlockProc2,Block2,87,,,Deaf - Hear,,3,,,,,,,,,StudyProc6
D_JOL B 2,142,1,BlockProc2,Block2,88,,,Contest - Competition,,5,,,,,,,,,StudyProc6
D_JOL B 2,142,1,BlockProc2,Block2,89,,,Magician - Magic,,4,,,,,,,,,StudyProc6
D_JOL B 2,142,1,BlockProc2,Block2,90,,,Deciet - Cheat,,1,,,,,,,,,StudyProc6
D_JOL B 2,142,1,BlockProc2,Block2,91,,,Furry - ?,,7,,,,,,,dog,5262,recallproc2
D_JOL B 2,142,1,BlockProc2,Block2,92,,,Mule - ?,,13,,,,,,,donkey,3773,recallproc2
D_JOL B 2,142,1,BlockProc2,Block2,93,,,Honest - ?,,38,,,,,,,truthful,3513,recallproc2
D_JOL B 2,142,1,BlockProc2,Block2,94,,,Flea - ?,,56,,,,,,,tick,2200,recallproc2
D_JOL B 2,142,1,BlockProc2,Block2,95,,,Thread - ?,,26,,,,,,,thistle,2957,recallproc2
D_JOL B 2,142,1,BlockProc2,Block2,96,,,Shoelace - ?,,4,,,,,,,tie,2635,recallproc2
D_JOL B 2,142,1,BlockProc2,Block2,97,,,Glass - ?,,32,,,,,,,jar,3671,recallproc2
D_JOL B 2,142,1,BlockProc2,Block2,98,,,Dead - ?,,33,,,,,,,coffin,3784,recallproc2
D_JOL B 2,142,1,BlockProc2,Block2,99,,,Extension - ?,,1,,,,,,,long,2396,recallproc2
D_JOL B 2,142,1,BlockProc2,Block2,100,,,Bird - ?,,24,,,,,,,sparrow,3625,recallproc2
D_JOL B 2,142,1,BlockProc2,Block2,101,,,Sun - ?,,60,,,,,,,tan,2131,recallproc2
D_JOL B 2,142,1,BlockProc2,Block2,102,,,Candle - ?,,44,,,,,,,smell,2523,recallproc2
D_JOL B 2,142,1,BlockProc2,Block2,103,,,Driver - ?,,11,,,,,,,car,2018,recallproc2
D_JOL B 2,142,1,BlockProc2,Block2,104,,,Earth - ?,,49,,,,,,,ground,3759,recallproc2
D_JOL B 2,142,1,BlockProc2,Block2,105,,,Affection - ?,,20,,,,,,,love,1781,recallproc2
D_JOL B 2,142,1,BlockProc2,Block2,106,,,Incense - ?,,15,,,,,,,smell,2714,recallproc2
D_JOL B 2,142,1,BlockProc2,Block2,107,,,Keys - ?,,70,,,,,,,car,2250,recallproc2
D_JOL B 2,142,1,BlockProc2,Block2,108,,,Name - ?,,72,,,,,,,,181,recallproc2
D_JOL B 2,142,1,BlockProc2,Block2,109,,,Water,,48,,,,,,,drink,4573,recallproc2
D_JOL B 2,142,1,BlockProc2,Block2,110,,,Temperature - ?,,78,,,,,,,cold,3672,recallproc2
D_JOL B 2,142,1,BlockProc2,Block2,111,,,Pop - ?,,28,,,,,,,tART,4096,recallproc2
D_JOL B 2,142,1,BlockProc2,Block2,112,,,Star - ?,,25,,,,,,,ACTRESS,8280,recallproc2
D_JOL B 2,142,1,BlockProc2,Block2,113,,,Truth - ?,,53,,,,,,,lie,2819,recallproc2
D_JOL B 2,142,1,BlockProc2,Block2,114,,,Fight - ?,,40,,,,,,,brawl,3031,recallproc2
D_JOL B 2,142,1,BlockProc2,Block2,115,,,Chop - ?,,12,,,,,,,cut,2242,recallproc2
D_JOL B 2,142,1,BlockProc2,Block2,116,,,Baseball - ?,,36,,,,,,,fied,3757,recallproc2
D_JOL B 2,142,1,BlockProc2,Block2,117,,,Loan - ?,,76,,,,,,,money,3402,recallproc2
D_JOL B 2,142,1,BlockProc2,Block2,118,,,Mason - ?,,43,,,,,,,jar,1958,recallproc2
D_JOL B 2,142,1,BlockProc2,Block2,119,,,Fish - ?,,35,,,,,,,salmon,7181,recallproc2
D_JOL B 2,142,1,BlockProc2,Block2,120,,,Car - ?,,22,,,,,,,driver,3149,recallproc2
D_JOL B 2,142,1,BlockProc2,Block2,121,,,Even - ?,,27,,,,,,,revenge,7580,recallproc2
D_JOL B 2,142,1,BlockProc2,Block2,122,,,Rights - ?,,42,,,,,,,equal,3468,recallproc2
D_JOL B 2,142,1,BlockProc2,Block2,123,,,Turn - ?,,21,,,,,,,flip,2813,recallproc2
D_JOL B 2,142,1,BlockProc2,Block2,124,,,Detective - ?,,5,,,,,,,mystery,3473,recallproc2
D_JOL B 2,142,1,BlockProc2,Block2,125,,,Bad - ?,,23,,,,,,,good,2514,recallproc2
D_JOL B 2,142,1,BlockProc2,Block2,126,,,Both - ?,,77,,,,,,,fan,3314,recallproc2
D_JOL B 2,142,1,BlockProc2,Block2,127,,,Adjourn - ?,,6,,,,,,,join,5321,recallproc2
D_JOL B 2,142,1,BlockProc2,Block2,128,,,Fruit - ?,,29,,,,,,,strawberry,6838,recallproc2
D_JOL B 2,142,1,BlockProc2,Block2,129,,,Feud - ?,,18,,,,,,,fight,2877,recallproc2
D_JOL B 2,142,1,BlockProc2,Block2,130,,,Vehicle - ?,,65,,,,,,,car,2591,recallproc2
D_JOL B 2,142,1,BlockProc2,Block2,131,,,Shell - ?,,68,,,,,,,beach,4155,recallproc2
D_JOL B 2,142,1,BlockProc2,Block2,132,,,Element - ?,,46,,,,,,,compund,6992,recallproc2
D_JOL B 2,142,1,BlockProc2,Block2,133,,,Mirror - ?,,79,,,,,,,dog,2144,recallproc2
D_JOL B 2,142,1,BlockProc2,Block2,134,,,Razor - ?,,41,,,,,,,sharp,3511,recallproc2
D_JOL B 2,142,1,BlockProc2,Block2,135,,,Litter - ?,,8,,,,,,,trash,2470,recallproc2
D_JOL B 2,142,1,BlockProc2,Block2,136,,,Stretch - ?,,62,,,,,,,cloth,2704,recallproc2
D_JOL B 2,142,1,BlockProc2,Block2,137,,,Money - ?,,37,,,,,,,banker,3608,recallproc2
D_JOL B 2,142,1,BlockProc2,Block2,138,,,Loud - ?,,57,,,,,,,quiet,4483,recallproc2
D_JOL B 2,142,1,BlockProc2,Block2,139,,,Main - ?,,80,,,,,,,street,2978,recallproc2
D_JOL B 2,142,1,BlockProc2,Block2,140,,,Document - ?,,14,,,,,,,paper,3447,recallproc2
D_JOL B 2,142,1,BlockProc2,Block2,141,,,Alone - ?,,50,,,,,,,lonely,2673,recallproc2
D_JOL B 2,142,1,BlockProc2,Block2,142,,,Best - ?,,30,,,,,,,favorite,3866,recallproc2
D_JOL B 2,142,1,BlockProc2,Block2,143,,,Own - ?,,58,,,,,,,have,3139,recallproc2
D_JOL B 2,142,1,BlockProc2,Block2,144,,,Shears - ?,,17,,,,,,,scissors,3929,recallproc2
D_JOL B 2,142,1,BlockProc2,Block2,145,,,Clue - ?,,2,,,,,,,game,2599,recallproc2
D_JOL B 2,142,1,BlockProc2,Block2,146,,,Scalp - ?,,10,,,,,,,head,1812,recallproc2
D_JOL B 2,142,1,BlockProc2,Block2,147,,,Plane - ?,,34,,,,,,,aircraft,5009,recallproc2
D_JOL B 2,142,1,BlockProc2,Block2,148,,,Dry - ?,,51,,,,,,,wet,3315,recallproc2
D_JOL B 2,142,1,BlockProc2,Block2,149,,,Gone - ?,,47,,,,,,,bye,3498,recallproc2
D_JOL B 2,142,1,BlockProc2,Block2,150,,,Wrist - ?,,45,,,,,,,bracelet,3394,recallproc2
D_JOL B 2,142,1,BlockProc2,Block2,151,,,Rod - ?,,55,,,,,,,cone,3470,recallproc2
D_JOL B 2,142,1,BlockProc2,Block2,152,,,Cake - ?,,71,,,,,,,bake,2623,recallproc2
D_JOL B 2,142,1,BlockProc2,Block2,153,,,Cactus - ?,,3,,,,,,,plant,2146,recallproc2
D_JOL B 2,142,1,BlockProc2,Block2,154,,,Meat - ?,,66,,,,,,,pork,4665,recallproc2
D_JOL B 2,142,1,BlockProc2,Block2,155,,,Listen - ?,,69,,,,,,,study,2929,recallproc2
D_JOL B 2,142,1,BlockProc2,Block2,156,,,Dine - ?,,16,,,,,,,eat,3304,recallproc2
D_JOL B 2,142,1,BlockProc2,Block2,157,,,Safety - ?,,52,,,,,,,calm,3288,recallproc2
D_JOL B 2,142,1,BlockProc2,Block2,158,,,Sleep - ?,,39,,,,,,,nap,2216,recallproc2
D_JOL B 2,142,1,BlockProc2,Block2,159,,,Fuzzy - ?,,73,,,,,,,dog,1796,recallproc2
D_JOL B 2,142,1,BlockProc2,Block2,160,,,Give - ?,,63,,,,,,,have,2898,recallproc2
D_JOL B 2,142,1,BlockProc2,Block2,161,,,Moat - ?,,74,,,,,,,float,3138,recallproc2
D_JOL B 2,142,1,BlockProc2,Block2,162,,,Maze - ?,,64,,,,,,,crazy,6520,recallproc2
D_JOL B 2,142,1,BlockProc2,Block2,163,,,Chill - ?,,19,,,,,,,cold,2092,recallproc2
D_JOL B 2,142,1,BlockProc2,Block2,164,,,Cat - ?,,31,,,,,,,dog,2974,recallproc2
D_JOL B 2,142,1,BlockProc2,Block2,165,,,Tantrum - ?,,59,,,,,,,temper,2355,recallproc2
D_JOL B 2,142,1,BlockProc2,Block2,166,,,Phone - ?,,54,,,,,,,communicate,3705,recallproc2
D_JOL B 2,142,1,BlockProc2,Block2,167,,,Crackle - ?,,67,,,,,,,snap,2960,recallproc2
D_JOL B 2,142,1,BlockProc2,Block2,168,,,Cherry - ?,,9,,,,,,,red,2037,recallproc2
D_JOL B 2,142,1,BlockProc2,Block2,169,,,Lease - ?,,75,,,,,,,rent,3625,recallproc2
D_JOL B 2,142,1,BlockProc2,Block2,170,,,Justice - ?,,61,,,,,,,police,2963,recallproc2
D_JOL B 2,142,1,BlockProc1,Block1,1,,,Shrimp - Fish,,4,,,,,,,,,StudyProc1
D_JOL B 2,142,1,BlockProc1,Block1,2,,,Member - Group,,5,,,,,,,,,StudyProc1
D_JOL B 2,142,1,BlockProc1,Block1,3,,,Snow - Ice,,3,,,,,,,,,StudyProc1
D_JOL B 2,142,1,BlockProc1,Block1,4,,,Curtain - Drapes,,2,,,,,,,,,StudyProc1
D_JOL B 2,142,1,BlockProc1,Block1,5,,,Haircut-Scissors,,1,,,,,,,,,StudyProc1
