ExperimentName,Subject,Session,Procedure[Block],Running[Block],Trial,Block1ITEMS,Block2ITEMS,cue_target,Direction,ListNum,pword3.RESP,pword3.RT,pword5.RESP,pword5.RT,Rword1.RESP,Rword1.RT,Rword2.RESP,Rword2.RT,Procedure[Trial]
D_JOL A 2,133,1,BlockProc1,Block1,1,,,Curtain - Drapes,,2,,,,,,,,,StudyProc1
D_JOL A 2,133,1,BlockProc1,Block1,2,,,Snow - Ice,,3,,,,,,,,,StudyProc1
D_JOL A 2,133,1,BlockProc1,Block1,3,,,Member - Group,,5,,,,,,,,,StudyProc1
D_JOL A 2,133,1,BlockProc1,Block1,4,,,Haircut-Scissors,,1,,,,,,,,,StudyProc1
D_JOL A 2,133,1,BlockProc1,Block1,5,,,Shrimp - Fish,,4,,,,,,,,,StudyProc1
D_JOL A 2,133,1,BlockProc1,Block1,6,19,,Orchid - Flower,F,19,73,14863,,,,,,,StudyProc3
D_JOL A 2,133,1,BlockProc1,Block1,7,74,,Art - Lion,U,74,14,12951,,,,,,,StudyProc3
D_JOL A 2,133,1,BlockProc1,Block1,8,80,,King - Vase,U,80,47,8012,,,,,,,StudyProc3
D_JOL A 2,133,1,BlockProc1,Block1,9,52,,Wine - Cheese,S,52,34,11613,,,,,,,StudyProc3
D_JOL A 2,133,1,BlockProc1,Block1,10,40,,Fire - Blaze,B,40,23,11598,,,,,,,StudyProc3
D_JOL A 2,133,1,BlockProc1,Block1,11,8,,Root - Plant,F,8,67,4088,,,,,,,StudyProc3
D_JOL A 2,133,1,BlockProc1,Block1,12,9,,Swan - Bird,F,9,12,9734,,,,,,,StudyProc3
D_JOL A 2,133,1,BlockProc1,Block1,13,14,,Geology - Rock,F,14,100,6090,,,,,,,StudyProc3
D_JOL A 2,133,1,BlockProc1,Block1,14,15,,Revolution - War,F,15,98,6054,,,,,,,StudyProc3
D_JOL A 2,133,1,BlockProc1,Block1,15,3,,Wage - Money,F,3,78,5574,,,,,,,StudyProc3
D_JOL A 2,133,1,BlockProc1,Block1,16,30,,Great - Fantastic,B,30,90,4446,,,,,,,StudyProc3
D_JOL A 2,133,1,BlockProc1,Block1,17,73,,Allow - Tuck,U,73,98,3197,,,,,,,StudyProc3
D_JOL A 2,133,1,BlockProc1,Block1,18,47,,Grill -Bar,S,47,100,3891,,,,,,,StudyProc3
D_JOL A 2,133,1,BlockProc1,Block1,19,34,,Work - Chore,B,34,99,4116,,,,,,,StudyProc3
D_JOL A 2,133,1,BlockProc1,Block1,20,79,,Hide - Sick,U,79,89,6597,,,,,,,StudyProc3
D_JOL A 2,133,1,BlockProc1,Block1,21,64,,Lift - Woman,U,64,45,6907,,,,,,,StudyProc3
D_JOL A 2,133,1,BlockProc1,Block1,22,7,,Bitter - Cold,F,7,98,4078,,,,,,,StudyProc3
D_JOL A 2,133,1,BlockProc1,Block1,23,65,,Soon - Belt,U,65,89,6011,,,,,,,StudyProc3
D_JOL A 2,133,1,BlockProc1,Block1,24,24,,Take - Seize,B,24,98,4751,,,,,,,StudyProc3
D_JOL A 2,133,1,BlockProc1,Block1,25,45,,Trial - Jury,S,45,95,8723,,,,,,,StudyProc3
D_JOL A 2,133,1,BlockProc1,Block1,26,66,,Discover - Floor,U,66,95,4252,,,,,,,StudyProc3
D_JOL A 2,133,1,BlockProc1,Block1,27,51,,Pop - Soda,S,51,97,5780,,,,,,,StudyProc3
D_JOL A 2,133,1,BlockProc1,Block1,28,18,,Credit - Card,F,18,97,6319,,,,,,,StudyProc3
D_JOL A 2,133,1,BlockProc1,Block1,29,78,,Cash - Would,U,78,99,9184,,,,,,,StudyProc3
D_JOL A 2,133,1,BlockProc1,Block1,30,33,,Ball - Racket,B,33,98,4705,,,,,,,StudyProc3
D_JOL A 2,133,1,BlockProc1,Block1,31,31,,Key - Latch,B,31,94,8754,,,,,,,StudyProc3
D_JOL A 2,133,1,BlockProc1,Block1,32,72,,Happy - Car,U,72,97,4740,,,,,,,StudyProc3
D_JOL A 2,133,1,BlockProc1,Block1,33,38,,Clothes - Attire,B,38,12,5082,,,,,,,StudyProc3
D_JOL A 2,133,1,BlockProc1,Block1,34,25,,Height - Growth,B,25,95,4830,,,,,,,StudyProc3
D_JOL A 2,133,1,BlockProc1,Block1,35,70,,Fix - Hand,U,70,95,3876,,,,,,,StudyProc3
D_JOL A 2,133,1,BlockProc1,Block1,36,43,,Location - Site,S,43,99,7903,,,,,,,StudyProc3
D_JOL A 2,133,1,BlockProc1,Block1,37,20,,Tuna -  Fish,F,20,97,6976,,,,,,,StudyProc3
D_JOL A 2,133,1,BlockProc1,Block1,38,57,,Lettuce - Salad,S,56,99,4418,,,,,,,StudyProc3
D_JOL A 2,133,1,BlockProc1,Block1,39,21,,Full - Enough,B,21,98,2533,,,,,,,StudyProc3
D_JOL A 2,133,1,BlockProc1,Block1,40,44,,Dump - Waste,S,44,97,4296,,,,,,,StudyProc3
D_JOL A 2,133,1,BlockProc1,Block1,41,23,,Dark - Cave,B,23,96,2398,,,,,,,StudyProc3
D_JOL A 2,133,1,BlockProc1,Block1,42,35,,Hunger - Famine,B,35,95,3088,,,,,,,StudyProc3
D_JOL A 2,133,1,BlockProc1,Block1,43,48,,Kidney - Liver,S,48,97,5513,,,,,,,StudyProc3
D_JOL A 2,133,1,BlockProc1,Block1,44,42,,Number - Amount,S,42,97,5885,,,,,,,StudyProc3
D_JOL A 2,133,1,BlockProc1,Block1,45,62,,Dietary - Sacking,U,62,86,3070,,,,,,,StudyProc3
D_JOL A 2,133,1,BlockProc1,Block1,46,26,,Sentence - Word,B,26,87,4676,,,,,,,StudyProc3
D_JOL A 2,133,1,BlockProc1,Block1,47,13,,Bridge - Water,F,13,89,4422,,,,,,,StudyProc3
D_JOL A 2,133,1,BlockProc1,Block1,48,54,,Choice - Decision,S,54,98,2900,,,,,,,StudyProc3
D_JOL A 2,133,1,BlockProc1,Block1,49,4,,Chisel - Hammer,F,4,98,3561,,,,,,,StudyProc3
D_JOL A 2,133,1,BlockProc1,Block1,50,63,,Park - Hungry,U,63,99,3360,,,,,,,StudyProc3
D_JOL A 2,133,1,BlockProc1,Block1,51,71,,Machine - Position,U,71,27,6980,,,,,,,StudyProc3
D_JOL A 2,133,1,BlockProc1,Block1,52,76,,Sugar - Riddle,U,76,97,2232,,,,,,,StudyProc3
D_JOL A 2,133,1,BlockProc1,Block1,53,6,,Hornet - Sting,F,6,95,3463,,,,,,,StudyProc3
D_JOL A 2,133,1,BlockProc1,Block1,54,37,,Smell - Stench,B,37,98,5184,,,,,,,StudyProc3
D_JOL A 2,133,1,BlockProc1,Block1,55,41,,Due - Assignment,S,41,99,4044,,,,,,,StudyProc3
D_JOL A 2,133,1,BlockProc1,Block1,56,28,,Math - Division,B,28,26,5990,,,,,,,StudyProc3
D_JOL A 2,133,1,BlockProc1,Block1,57,77,,Valley - Add,U,77,95,3906,,,,,,,StudyProc3
D_JOL A 2,133,1,BlockProc1,Block1,58,53,,Bathroom - Toilet,S,53,95,3642,,,,,,,StudyProc3
D_JOL A 2,133,1,BlockProc1,Block1,59,12,,Hygiene - Clean,F,12,99,3130,,,,,,,StudyProc3
D_JOL A 2,133,1,BlockProc1,Block1,60,60,,Circle - Round,S,60,100,2381,,,,,,,StudyProc3
D_JOL A 2,133,1,BlockProc1,Block1,61,46,,Architecture - Design,S,46,92,3818,,,,,,,StudyProc3
D_JOL A 2,133,1,BlockProc1,Block1,62,49,,Begin - End,S,49,100,4062,,,,,,,StudyProc3
D_JOL A 2,133,1,BlockProc1,Block1,63,68,,Debate - Sight,U,68,23,5980,,,,,,,StudyProc3
D_JOL A 2,133,1,BlockProc1,Block1,64,5,,Editor - News,F,5,99,3397,,,,,,,StudyProc3
D_JOL A 2,133,1,BlockProc1,Block1,65,27,,Bug - Wasp,B,27,2,8227,,,,,,,StudyProc3
D_JOL A 2,133,1,BlockProc1,Block1,66,56,,Past - Future,S,57,100,4998,,,,,,,StudyProc3
D_JOL A 2,133,1,BlockProc1,Block1,67,39,,Plane - Pilot,B,39,97,8090,,,,,,,StudyProc3
D_JOL A 2,133,1,BlockProc1,Block1,68,61,,Pusher - Clutter,U,61,97,2369,,,,,,,StudyProc3
D_JOL A 2,133,1,BlockProc1,Block1,69,59,,Baby - Child,S,59,75,10008,,,,,,,StudyProc3
D_JOL A 2,133,1,BlockProc1,Block1,70,55,,Shoe - Foot,S,55,87,4161,,,,,,,StudyProc3
D_JOL A 2,133,1,BlockProc1,Block1,71,69,,Artery - Bronze,U,69,99,2509,,,,,,,StudyProc3
D_JOL A 2,133,1,BlockProc1,Block1,72,17,,Herd - Cow,F,17,88,6105,,,,,,,StudyProc3
D_JOL A 2,133,1,BlockProc1,Block1,73,2,,Digestion - Stomach,F,2,76,7850,,,,,,,StudyProc3
D_JOL A 2,133,1,BlockProc1,Block1,74,32,,Hot - Chili,B,32,89,1884,,,,,,,StudyProc3
D_JOL A 2,133,1,BlockProc1,Block1,75,22,,Drink - Sip,B,22,97,3760,,,,,,,StudyProc3
D_JOL A 2,133,1,BlockProc1,Block1,76,50,,Blow - Wind,S,50,96,2856,,,,,,,StudyProc3
D_JOL A 2,133,1,BlockProc1,Block1,77,10,,Paw - Dog,F,10,97,4803,,,,,,,StudyProc3
D_JOL A 2,133,1,BlockProc1,Block1,78,58,,Honey - Bee,S,58,99,3943,,,,,,,StudyProc3
D_JOL A 2,133,1,BlockProc1,Block1,79,11,,Way - Out,F,11,100,3578,,,,,,,StudyProc3
D_JOL A 2,133,1,BlockProc1,Block1,80,1,,Delinquent - Bad,F,1,89,6420,,,,,,,StudyProc3
D_JOL A 2,133,1,BlockProc1,Block1,81,75,,Strong - Accident,U,75,99,5392,,,,,,,StudyProc3
D_JOL A 2,133,1,BlockProc1,Block1,82,16,,Discussion - Talk,F,16,97,2920,,,,,,,StudyProc3
D_JOL A 2,133,1,BlockProc1,Block1,83,67,,Death - Business,U,67,56,3769,,,,,,,StudyProc3
D_JOL A 2,133,1,BlockProc1,Block1,84,36,,Sleep - Drowsy,B,36,89,3700,,,,,,,StudyProc3
D_JOL A 2,133,1,BlockProc1,Block1,85,29,,Law - Attorney,B,29,98,6269,,,,,,,StudyProc3
D_JOL A 2,133,1,BlockProc1,Block1,86,,,Trees - Green,,5,,,,,,,,,StudyProc2
D_JOL A 2,133,1,BlockProc1,Block1,87,,,Catcher - Baseball,,4,,,,,,,,,StudyProc2
D_JOL A 2,133,1,BlockProc1,Block1,88,,,Friendliness - Nice,,3,,,,,,,,,StudyProc2
D_JOL A 2,133,1,BlockProc1,Block1,89,,,Geese - Goose,,1,,,,,,,,,StudyProc2
D_JOL A 2,133,1,BlockProc1,Block1,90,,,Grab - Take,,2,,,,,,,,,StudyProc2
D_JOL A 2,133,1,BlockProc1,Block1,91,,,Number - ?,,42,,,,,one,6459,,,recallproc1
D_JOL A 2,133,1,BlockProc1,Block1,92,,,Swan - ?,,9,,,,,lake,3568,,,recallproc1
D_JOL A 2,133,1,BlockProc1,Block1,93,,,Wine - ?,,52,,,,,cheese,3176,,,recallproc1
D_JOL A 2,133,1,BlockProc1,Block1,94,,,Art - ?,,74,,,,,museum,11192,,,recallproc1
D_JOL A 2,133,1,BlockProc1,Block1,95,,,Debate - ?,,68,,,,,talk,4902,,,recallproc1
D_JOL A 2,133,1,BlockProc1,Block1,96,,,Math - ?,,28,,,,,test,10889,,,recallproc1
D_JOL A 2,133,1,BlockProc1,Block1,97,,,Paw - ?,,10,,,,,dog,3251,,,recallproc1
D_JOL A 2,133,1,BlockProc1,Block1,98,,,Herd - ?,,17,,,,,cow,2416,,,recallproc1
D_JOL A 2,133,1,BlockProc1,Block1,99,,,Discussion - ?,,16,,,,,talk,3390,,,recallproc1
D_JOL A 2,133,1,BlockProc1,Block1,100,,,Delinquent - ?,,1,,,,,bad,3389,,,recallproc1
D_JOL A 2,133,1,BlockProc1,Block1,101,,,Park - ?,,63,,,,,hungry,5052,,,recallproc1
D_JOL A 2,133,1,BlockProc1,Block1,102,,,Tuna - ?,,20,,,,,fish,3713,,,recallproc1
D_JOL A 2,133,1,BlockProc1,Block1,103,,,Pop - ?,,51,,,,,soda,3107,,,recallproc1
D_JOL A 2,133,1,BlockProc1,Block1,104,,,Drink - ?,,22,,,,,water,29014,,,recallproc1
D_JOL A 2,133,1,BlockProc1,Block1,105,,,Honey - ?,,58,,,,,bee,6466,,,recallproc1
D_JOL A 2,133,1,BlockProc1,Block1,106,,,Circle - ?,,60,,,,,round,4487,,,recallproc1
D_JOL A 2,133,1,BlockProc1,Block1,107,,,Architecture - ?,,46,,,,,hall,7626,,,recallproc1
D_JOL A 2,133,1,BlockProc1,Block1,108,,,Full - ?,,21,,,,,empty,8839,,,recallproc1
D_JOL A 2,133,1,BlockProc1,Block1,109,,,Happy - ?,,72,,,,,sad,5756,,,recallproc1
D_JOL A 2,133,1,BlockProc1,Block1,110,,,Clothes - ?,,38,,,,,dress,8268,,,recallproc1
D_JOL A 2,133,1,BlockProc1,Block1,111,,,Revolution - ?,,15,,,,,war,2496,,,recallproc1
D_JOL A 2,133,1,BlockProc1,Block1,112,,,Location - ?,,43,,,,,place,9811,,,recallproc1
D_JOL A 2,133,1,BlockProc1,Block1,113,,,Orchid - ?,,19,,,,,flower,3257,,,recallproc1
D_JOL A 2,133,1,BlockProc1,Block1,114,,,Height - ?,,25,,,,,tall,4109,,,recallproc1
D_JOL A 2,133,1,BlockProc1,Block1,115,,,Dietary - ?,,62,,,,,stomach,4816,,,recallproc1
D_JOL A 2,133,1,BlockProc1,Block1,116,,,Blow - ?,,50,,,,,wind,2942,,,recallproc1
D_JOL A 2,133,1,BlockProc1,Block1,117,,,Take - ?,,24,,,,,out,3263,,,recallproc1
D_JOL A 2,133,1,BlockProc1,Block1,118,,,Chisel - ?,,4,,,,,hammer,4836,,,recallproc1
D_JOL A 2,133,1,BlockProc1,Block1,119,,,Grill - ?,,47,,,,,meat,11769,,,recallproc1
D_JOL A 2,133,1,BlockProc1,Block1,120,,,Sentence - ?,,26,,,,,write,7448,,,recallproc1
D_JOL A 2,133,1,BlockProc1,Block1,121,,,Sleep - ?,,36,,,,,awake,7221,,,recallproc1
D_JOL A 2,133,1,BlockProc1,Block1,122,,,Wage - ?,,3,,,,,would,14914,,,recallproc1
D_JOL A 2,133,1,BlockProc1,Block1,123,,,King - ?,,80,,,,,prince,9660,,,recallproc1
D_JOL A 2,133,1,BlockProc1,Block1,124,,,Fire - ?,,40,,,,,wood,3344,,,recallproc1
D_JOL A 2,133,1,BlockProc1,Block1,125,,,Shoe - ?,,55,,,,,foot,3265,,,recallproc1
D_JOL A 2,133,1,BlockProc1,Block1,126,,,Hunger - ?,,35,,,,,burger,5837,,,recallproc1
D_JOL A 2,133,1,BlockProc1,Block1,127,,,Trial - ?,,45,,,,,jurry,4906,,,recallproc1
D_JOL A 2,133,1,BlockProc1,Block1,128,,,Great - ?,,30,,,,,fantastic,8541,,,recallproc1
D_JOL A 2,133,1,BlockProc1,Block1,129,,,Plane - ?,,39,,,,,fly,7445,,,recallproc1
D_JOL A 2,133,1,BlockProc1,Block1,130,,,Bridge - ?,,13,,,,,boat,3914,,,recallproc1
D_JOL A 2,133,1,BlockProc1,Block1,131,,,Law - ?,,29,,,,,justice,6957,,,recallproc1
D_JOL A 2,133,1,BlockProc1,Block1,132,,,Bitter - ?,,7,,,,,sweet,3133,,,recallproc1
D_JOL A 2,133,1,BlockProc1,Block1,133,,,Machine - ?,,71,,,,,bus,12551,,,recallproc1
D_JOL A 2,133,1,BlockProc1,Block1,134,,,Sugar - ?,,76,,,,,sweet,3159,,,recallproc1
D_JOL A 2,133,1,BlockProc1,Block1,135,,,Soon - ?,,65,,,,,after,6184,,,recallproc1
D_JOL A 2,133,1,BlockProc1,Block1,136,,,Death - ?,,67,,,,,end,5367,,,recallproc1
D_JOL A 2,133,1,BlockProc1,Block1,137,,,Smell - ?,,37,,,,,stinch,14152,,,recallproc1
D_JOL A 2,133,1,BlockProc1,Block1,138,,,Geology - ?,,14,,,,,rock,3799,,,recallproc1
D_JOL A 2,133,1,BlockProc1,Block1,139,,,Past - ?,,57,,,,,future,6262,,,recallproc1
D_JOL A 2,133,1,BlockProc1,Block1,140,,,Begin - ?,,49,,,,,end,2723,,,recallproc1
D_JOL A 2,133,1,BlockProc1,Block1,141,,,Root - ?,,8,,,,,tree,6892,,,recallproc1
D_JOL A 2,133,1,BlockProc1,Block1,142,,,Work - ?,,34,,,,,would,4559,,,recallproc1
D_JOL A 2,133,1,BlockProc1,Block1,143,,,Key - ?,,31,,,,,hole,3720,,,recallproc1
D_JOL A 2,133,1,BlockProc1,Block1,144,,,Strong - ?,,75,,,,,weak,6401,,,recallproc1
D_JOL A 2,133,1,BlockProc1,Block1,145,,,Hornet - ?,,6,,,,,nest,3336,,,recallproc1
D_JOL A 2,133,1,BlockProc1,Block1,146,,,Choice - ?,,54,,,,,decission,6345,,,recallproc1
D_JOL A 2,133,1,BlockProc1,Block1,147,,,Fix - ?,,70,,,,,break,8954,,,recallproc1
D_JOL A 2,133,1,BlockProc1,Block1,148,,,Hygiene - ?,,12,,,,,clean,4330,,,recallproc1
D_JOL A 2,133,1,BlockProc1,Block1,149,,,Hot - ?,,32,,,,,chili,6259,,,recallproc1
D_JOL A 2,133,1,BlockProc1,Block1,150,,,Dark - ?,,23,,,,,light,7768,,,recallproc1
D_JOL A 2,133,1,BlockProc1,Block1,151,,,Discover - ?,,66,,,,,find,14312,,,recallproc1
D_JOL A 2,133,1,BlockProc1,Block1,152,,,Kidney - ?,,48,,,,,liver,3682,,,recallproc1
D_JOL A 2,133,1,BlockProc1,Block1,153,,,Lettuce - ?,,56,,,,,salad,3469,,,recallproc1
D_JOL A 2,133,1,BlockProc1,Block1,154,,,Way - ?,,11,,,,,out,2777,,,recallproc1
D_JOL A 2,133,1,BlockProc1,Block1,155,,,Valley - ?,,77,,,,,river,4849,,,recallproc1
D_JOL A 2,133,1,BlockProc1,Block1,156,,,Allow - ?,,73,,,,,let,4310,,,recallproc1
D_JOL A 2,133,1,BlockProc1,Block1,157,,,Digestion - ?,,2,,,,,stomach,4992,,,recallproc1
D_JOL A 2,133,1,BlockProc1,Block1,158,,,Bug - ?,,27,,,,,bird,10863,,,recallproc1
D_JOL A 2,133,1,BlockProc1,Block1,159,,,Cash - ?,,78,,,,,would,2923,,,recallproc1
D_JOL A 2,133,1,BlockProc1,Block1,160,,,Artery - ?,,69,,,,,rust,12389,,,recallproc1
D_JOL A 2,133,1,BlockProc1,Block1,161,,,Editor - ?,,5,,,,,writer,7676,,,recallproc1
D_JOL A 2,133,1,BlockProc1,Block1,162,,,Pusher - ?,,61,,,,,run,9495,,,recallproc1
D_JOL A 2,133,1,BlockProc1,Block1,163,,,Ball - ?,,33,,,,,bounce,8386,,,recallproc1
D_JOL A 2,133,1,BlockProc1,Block1,164,,,Hide - ?,,79,,,,,stinch,6857,,,recallproc1
D_JOL A 2,133,1,BlockProc1,Block1,165,,,Bathroom - ?,,53,,,,,toilet,4381,,,recallproc1
D_JOL A 2,133,1,BlockProc1,Block1,166,,,Due - ?,,41,,,,,pay,5420,,,recallproc1
D_JOL A 2,133,1,BlockProc1,Block1,167,,,Lift - ?,,64,,,,,height,6314,,,recallproc1
D_JOL A 2,133,1,BlockProc1,Block1,168,,,Baby - ?,,59,,,,,little,12412,,,recallproc1
D_JOL A 2,133,1,BlockProc1,Block1,169,,,Credit - ?,,18,,,,,card,3130,,,recallproc1
D_JOL A 2,133,1,BlockProc1,Block1,170,,,Dump - ?,,44,,,,,trash,7140,,,recallproc1
D_JOL A 2,133,1,BlockProc2,Block2,1,,,Sheriff - Police,,1,,,,,,,,,StudyProc4
D_JOL A 2,133,1,BlockProc2,Block2,2,,,Malt - Chocolate,,5,,,,,,,,,StudyProc4
D_JOL A 2,133,1,BlockProc2,Block2,3,,,Disintegrate - Disappear,,3,,,,,,,,,StudyProc4
D_JOL A 2,133,1,BlockProc2,Block2,4,,,Essay - Write,,4,,,,,,,,,StudyProc4
D_JOL A 2,133,1,BlockProc2,Block2,5,,,Hide - Scare,,2,,,,,,,,,StudyProc4
D_JOL A 2,133,1,BlockProc2,Block2,6,,33,Dead - Coffin,B,33,,,65,12573,,,,,StudyProc5
D_JOL A 2,133,1,BlockProc2,Block2,7,,49,Earth - Ground,S,49,,,22,9009,,,,,StudyProc5
D_JOL A 2,133,1,BlockProc2,Block2,8,,12,Chop - Cut,F,12,,,23,3896,,,,,StudyProc5
D_JOL A 2,133,1,BlockProc2,Block2,9,,54,Phone - Communication,S,54,,,53,2256,,,,,StudyProc5
D_JOL A 2,133,1,BlockProc2,Block2,10,,29,Fruit - Strawberry,B,29,,,14,6090,,,,,StudyProc5
D_JOL A 2,133,1,BlockProc2,Block2,11,,60,Sun - Tan,S,60,,,65,2831,,,,,StudyProc5
D_JOL A 2,133,1,BlockProc2,Block2,12,,22,Car - Windshield,B,22,,,34,2975,,,,,StudyProc5
D_JOL A 2,133,1,BlockProc2,Block2,13,,26,Thread - Thimble,B,26,,,45,3043,,,,,StudyProc5
D_JOL A 2,133,1,BlockProc2,Block2,14,,10,Scalp - Head,F,10,,,54,3680,,,,,StudyProc5
D_JOL A 2,133,1,BlockProc2,Block2,15,,31,Cat - Panther,B,31,,,40,2457,,,,,StudyProc5
D_JOL A 2,133,1,BlockProc2,Block2,16,,71,Name - Hate,U,71,,,89,3620,,,,,StudyProc5
D_JOL A 2,133,1,BlockProc2,Block2,17,,57,Loud - Noise,S,57,,,85,3099,,,,,StudyProc5
D_JOL A 2,133,1,BlockProc2,Block2,18,,37,Money - Banker,B,37,,,10,6192,,,,,StudyProc5
D_JOL A 2,133,1,BlockProc2,Block2,19,,75,Loan - Sign,U,75,,,,1702,,,,,StudyProc5
D_JOL A 2,133,1,BlockProc2,Block2,20,,44,Candle - Wax,S,44,,,100,4678,,,,,StudyProc5
D_JOL A 2,133,1,BlockProc2,Block2,21,,41,Razor - Shave,S,41,,,76,3151,,,,,StudyProc5
D_JOL A 2,133,1,BlockProc2,Block2,22,,52,Safety - Seatbelt,S,52,,,97,1803,,,,,StudyProc5
D_JOL A 2,133,1,BlockProc2,Block2,23,,11,Driver - Car,F,11,,,76,3199,,,,,StudyProc5
D_JOL A 2,133,1,BlockProc2,Block2,24,,27,Even - Revenge,B,27,,,97,2760,,,,,StudyProc5
D_JOL A 2,133,1,BlockProc2,Block2,25,,2,Clue - Game,F,2,,,84,3074,,,,,StudyProc5
D_JOL A 2,133,1,BlockProc2,Block2,26,,32,Glass - Breakable,B,32,,,67,6595,,,,,StudyProc5
D_JOL A 2,133,1,BlockProc2,Block2,27,,8,Litter - Trash,F,8,,,97,3049,,,,,StudyProc5
D_JOL A 2,133,1,BlockProc2,Block2,28,,39,Sleep - Nap,B,39,,,74,3266,,,,,StudyProc5
D_JOL A 2,133,1,BlockProc2,Block2,29,,23,Bad - Villain,B,23,,,86,2984,,,,,StudyProc5
D_JOL A 2,133,1,BlockProc2,Block2,30,,65,Meat - Obtain,U,65,,,74,4321,,,,,StudyProc5
D_JOL A 2,133,1,BlockProc2,Block2,31,,46,Element - Carbon,S,46,,,74,3304,,,,,StudyProc5
D_JOL A 2,133,1,BlockProc2,Block2,32,,76,Both - Ounce,U,76,,,81,3731,,,,,StudyProc5
D_JOL A 2,133,1,BlockProc2,Block2,33,,69,Keys - Joke,U,69,,,99,3384,,,,,StudyProc5
D_JOL A 2,133,1,BlockProc2,Block2,34,,24,Bird - Penguin,B,24,,,20,3785,,,,,StudyProc5
D_JOL A 2,133,1,BlockProc2,Block2,35,,30,Best - Favorite,B,30,,,67,4357,,,,,StudyProc5
D_JOL A 2,133,1,BlockProc2,Block2,36,,28,Pop - Balloon,B,28,,,95,5755,,,,,StudyProc5
D_JOL A 2,133,1,BlockProc2,Block2,37,,17,Shears - Scissors,F,17,,,76,2841,,,,,StudyProc5
D_JOL A 2,133,1,BlockProc2,Block2,38,,80,Charm - Vehicle,U,80,,,78,2288,,,,,StudyProc5
D_JOL A 2,133,1,BlockProc2,Block2,39,,74,Lease - Toil,U,74,,,76,2845,,,,,StudyProc5
D_JOL A 2,133,1,BlockProc2,Block2,40,,73,Moat - Clear,U,73,,,23,5081,,,,,StudyProc5
D_JOL A 2,133,1,BlockProc2,Block2,41,,68,Listen - Fiction,U,68,,,69,5216,,,,,StudyProc5
D_JOL A 2,133,1,BlockProc2,Block2,42,,53,Truth - Lie,S,53,,,43,2335,,,,,StudyProc5
D_JOL A 2,133,1,BlockProc2,Block2,43,,40,Fight - Brawl,B,40,,,57,3670,,,,,StudyProc5
D_JOL A 2,133,1,BlockProc2,Block2,44,,77,Temperature - Morning,U,77,,,69,3162,,,,,StudyProc5
D_JOL A 2,133,1,BlockProc2,Block2,45,,20,Affection - Love,F,20,,,89,4161,,,,,StudyProc5
D_JOL A 2,133,1,BlockProc2,Block2,46,,67,Shell - Snake,U,67,,,99,2059,,,,,StudyProc5
D_JOL A 2,133,1,BlockProc2,Block2,47,,78,Mirror - Children,U,78,,,10,4484,,,,,StudyProc5
D_JOL A 2,133,1,BlockProc2,Block2,48,,35,Fish - Sardine,B,35,,,89,3151,,,,,StudyProc5
D_JOL A 2,133,1,BlockProc2,Block2,49,,64,Maze - Election,U,64,,,98,1444,,,,,StudyProc5
D_JOL A 2,133,1,BlockProc2,Block2,50,,18,Feud - Fight,F,18,,,88,5910,,,,,StudyProc5
D_JOL A 2,133,1,BlockProc2,Block2,51,,62,Stretch - Cloth,U,62,,,98,2177,,,,,StudyProc5
D_JOL A 2,133,1,BlockProc2,Block2,52,,6,Adjourn - End,F,6,,,89,3153,,,,,StudyProc5
D_JOL A 2,133,1,BlockProc2,Block2,53,,45,Wrist - Bracelet,S,45,,,88,2762,,,,,StudyProc5
D_JOL A 2,133,1,BlockProc2,Block2,54,,56,Flea - Tick,S,56,,,88,2174,,,,,StudyProc5
D_JOL A 2,133,1,BlockProc2,Block2,55,,70,Cake - Clothes,U,70,,,99,3136,,,,,StudyProc5
D_JOL A 2,133,1,BlockProc2,Block2,56,,36,Baseball - League,B,36,,,33,2323,,,,,StudyProc5
D_JOL A 2,133,1,BlockProc2,Block2,57,,1,Extension - Long,F,1,,,22,4312,,,,,StudyProc5
D_JOL A 2,133,1,BlockProc2,Block2,58,,63,Give - Steak,U,63,,,56,4012,,,,,StudyProc5
D_JOL A 2,133,1,BlockProc2,Block2,59,,15,Incense - Smell,F,15,,,56,2051,,,,,StudyProc5
D_JOL A 2,133,1,BlockProc2,Block2,60,,58,Own - Have,S,58,,,98,2486,,,,,StudyProc5
D_JOL A 2,133,1,BlockProc2,Block2,61,,25,Star - Actress,B,25,,,98,2207,,,,,StudyProc5
D_JOL A 2,133,1,BlockProc2,Block2,62,,5,Detective - Mystery,F,5,,,22,3737,,,,,StudyProc5
D_JOL A 2,133,1,BlockProc2,Block2,63,,79,Main - Scar,U,79,,,44,4200,,,,,StudyProc5
D_JOL A 2,133,1,BlockProc2,Block2,64,,38,Honest - Truthful,B,38,,,85,4208,,,,,StudyProc5
D_JOL A 2,133,1,BlockProc2,Block2,65,,13,Mule - Donkey,F,13,,,97,2934,,,,,StudyProc5
D_JOL A 2,133,1,BlockProc2,Block2,66,,34,Plane - Aircraft,B,34,,,12,2705,,,,,StudyProc5
D_JOL A 2,133,1,BlockProc2,Block2,67,,48,Water - Drink,S,48,,,90,3029,,,,,StudyProc5
D_JOL A 2,133,1,BlockProc2,Block2,68,,14,Document - Paper,F,14,,,34,4102,,,,,StudyProc5
D_JOL A 2,133,1,BlockProc2,Block2,69,,7,Furry - Dog,F,7,,,67,2837,,,,,StudyProc5
D_JOL A 2,133,1,BlockProc2,Block2,70,,47,Gone - Away,S,47,,,34,3674,,,,,StudyProc5
D_JOL A 2,133,1,BlockProc2,Block2,71,,3,Cactus - Plant,F,3,,,,1605,,,,,StudyProc5
D_JOL A 2,133,1,BlockProc2,Block2,72,,9,Cherry - Red,F,9,,,69,5481,,,,,StudyProc5
D_JOL A 2,133,1,BlockProc2,Block2,73,,21,Turn - Flip,B,21,,,6,6547,,,,,StudyProc5
D_JOL A 2,133,1,BlockProc2,Block2,74,,66,Crackle - Able,U,66,,,12,3153,,,,,StudyProc5
D_JOL A 2,133,1,BlockProc2,Block2,75,,42,Rights - Equal,S,42,,,98,1846,,,,,StudyProc5
D_JOL A 2,133,1,BlockProc2,Block2,76,,59,Tantrum - Temper,S,59,,,74,3891,,,,,StudyProc5
D_JOL A 2,133,1,BlockProc2,Block2,77,,50,Alone - Lonely,S,50,,,100,6594,,,,,StudyProc5
D_JOL A 2,133,1,BlockProc2,Block2,78,,51,Dry - Wet,S,51,,,78,2223,,,,,StudyProc5
D_JOL A 2,133,1,BlockProc2,Block2,79,,61,Justice - Maroon,U,61,,,59,3364,,,,,StudyProc5
D_JOL A 2,133,1,BlockProc2,Block2,80,,16,Dine - Eat,F,16,,,98,1938,,,,,StudyProc5
D_JOL A 2,133,1,BlockProc2,Block2,81,,4,Shoelace - Tie,F,4,,,72,3309,,,,,StudyProc5
D_JOL A 2,133,1,BlockProc2,Block2,82,,55,Rod - Reel,S,55,,,95,1721,,,,,StudyProc5
D_JOL A 2,133,1,BlockProc2,Block2,83,,72,Fuzzy - Bang,U,72,,,95,2612,,,,,StudyProc5
D_JOL A 2,133,1,BlockProc2,Block2,84,,43,Mason - Jar,S,43,,,96,4642,,,,,StudyProc5
D_JOL A 2,133,1,BlockProc2,Block2,85,,19,Chill - Cold,F,19,,,99,2375,,,,,StudyProc5
D_JOL A 2,133,1,BlockProc2,Block2,86,,,Deciet - Cheat,,1,,,,,,,,,StudyProc6
D_JOL A 2,133,1,BlockProc2,Block2,87,,,Mind - Matter,,2,,,,,,,,,StudyProc6
D_JOL A 2,133,1,BlockProc2,Block2,88,,,Contest - Competition,,5,,,,,,,,,StudyProc6
D_JOL A 2,133,1,BlockProc2,Block2,89,,,Magician - Magic,,4,,,,,,,,,StudyProc6
D_JOL A 2,133,1,BlockProc2,Block2,90,,,Deaf - Hear,,3,,,,,,,,,StudyProc6
D_JOL A 2,133,1,BlockProc2,Block2,91,,,Affection - ?,,20,,,,,,,love,3303,recallproc2
D_JOL A 2,133,1,BlockProc2,Block2,92,,,Water,,48,,,,,,,drink,3233,recallproc2
D_JOL A 2,133,1,BlockProc2,Block2,93,,,Keys - ?,,70,,,,,,,lock,5943,recallproc2
D_JOL A 2,133,1,BlockProc2,Block2,94,,,Loud - ?,,57,,,,,,,proud,9744,recallproc2
D_JOL A 2,133,1,BlockProc2,Block2,95,,,Safety - ?,,52,,,,,,,blanket,13441,recallproc2
D_JOL A 2,133,1,BlockProc2,Block2,96,,,Rights - ?,,42,,,,,,,rules,4309,recallproc2
D_JOL A 2,133,1,BlockProc2,Block2,97,,,Cat - ?,,31,,,,,,,paw,3591,recallproc2
D_JOL A 2,133,1,BlockProc2,Block2,98,,,Car - ?,,22,,,,,,,door,3887,recallproc2
D_JOL A 2,133,1,BlockProc2,Block2,99,,,Fight - ?,,40,,,,,,,feud,7882,recallproc2
D_JOL A 2,133,1,BlockProc2,Block2,100,,,Truth - ?,,53,,,,,,,honest,8661,recallproc2
D_JOL A 2,133,1,BlockProc2,Block2,101,,,Name - ?,,72,,,,,,,number,11417,recallproc2
D_JOL A 2,133,1,BlockProc2,Block2,102,,,Moat - ?,,74,,,,,,,boat,4391,recallproc2
D_JOL A 2,133,1,BlockProc2,Block2,103,,,Tantrum - ?,,59,,,,,,,cry,9454,recallproc2
D_JOL A 2,133,1,BlockProc2,Block2,104,,,Dead - ?,,33,,,,,,,alive,12866,recallproc2
D_JOL A 2,133,1,BlockProc2,Block2,105,,,Justice - ?,,61,,,,,,,law,4182,recallproc2
D_JOL A 2,133,1,BlockProc2,Block2,106,,,Dine - ?,,16,,,,,,,eat,3478,recallproc2
D_JOL A 2,133,1,BlockProc2,Block2,107,,,Furry - ?,,7,,,,,,,friend,3721,recallproc2
D_JOL A 2,133,1,BlockProc2,Block2,108,,,Clue - ?,,2,,,,,,,hint,6339,recallproc2
D_JOL A 2,133,1,BlockProc2,Block2,109,,,Alone - ?,,50,,,,,,,empty,5228,recallproc2
D_JOL A 2,133,1,BlockProc2,Block2,110,,,Document - ?,,14,,,,,,,write,4546,recallproc2
D_JOL A 2,133,1,BlockProc2,Block2,111,,,Shoelace - ?,,4,,,,,,,tie,3931,recallproc2
D_JOL A 2,133,1,BlockProc2,Block2,112,,,Main - ?,,80,,,,,,,side,8101,recallproc2
D_JOL A 2,133,1,BlockProc2,Block2,113,,,Give - ?,,63,,,,,,,take,2919,recallproc2
D_JOL A 2,133,1,BlockProc2,Block2,114,,,Adjourn - ?,,6,,,,,,,end,2497,recallproc2
D_JOL A 2,133,1,BlockProc2,Block2,115,,,Fruit - ?,,29,,,,,,,salad,3164,recallproc2
D_JOL A 2,133,1,BlockProc2,Block2,116,,,Incense - ?,,15,,,,,,,smell,3493,recallproc2
D_JOL A 2,133,1,BlockProc2,Block2,117,,,Lease - ?,,75,,,,,,,buy,3936,recallproc2
D_JOL A 2,133,1,BlockProc2,Block2,118,,,Glass - ?,,32,,,,,,,break,5873,recallproc2
D_JOL A 2,133,1,BlockProc2,Block2,119,,,Star - ?,,25,,,,,,,shine,3621,recallproc2
D_JOL A 2,133,1,BlockProc2,Block2,120,,,Shell - ?,,68,,,,,,,sea,3450,recallproc2
D_JOL A 2,133,1,BlockProc2,Block2,121,,,Chill - ?,,19,,,,,,,cold,3751,recallproc2
D_JOL A 2,133,1,BlockProc2,Block2,122,,,Feud - ?,,18,,,,,,,fight,3648,recallproc2
D_JOL A 2,133,1,BlockProc2,Block2,123,,,Honest - ?,,38,,,,,,,truth,4469,recallproc2
D_JOL A 2,133,1,BlockProc2,Block2,124,,,Listen - ?,,69,,,,,,,tlk,5857,recallproc2
D_JOL A 2,133,1,BlockProc2,Block2,125,,,Scalp - ?,,10,,,,,,,head,2733,recallproc2
D_JOL A 2,133,1,BlockProc2,Block2,126,,,Fish - ?,,35,,,,,,,tuna,5007,recallproc2
D_JOL A 2,133,1,BlockProc2,Block2,127,,,Cactus - ?,,3,,,,,,,flower,5781,recallproc2
D_JOL A 2,133,1,BlockProc2,Block2,128,,,Bird - ?,,24,,,,,,,bee,3333,recallproc2
D_JOL A 2,133,1,BlockProc2,Block2,129,,,Rod - ?,,55,,,,,,,reel,2846,recallproc2
D_JOL A 2,133,1,BlockProc2,Block2,130,,,Own - ?,,58,,,,,,,buy,4836,recallproc2
D_JOL A 2,133,1,BlockProc2,Block2,131,,,Sun - ?,,60,,,,,,,moon,3353,recallproc2
D_JOL A 2,133,1,BlockProc2,Block2,132,,,Cherry - ?,,9,,,,,,,blossom,4481,recallproc2
D_JOL A 2,133,1,BlockProc2,Block2,133,,,Candle - ?,,44,,,,,,,wax,3221,recallproc2
D_JOL A 2,133,1,BlockProc2,Block2,134,,,Dry - ?,,51,,,,,,,wet,2395,recallproc2
D_JOL A 2,133,1,BlockProc2,Block2,135,,,Chop - ?,,12,,,,,,,cut,4482,recallproc2
D_JOL A 2,133,1,BlockProc2,Block2,136,,,Temperature - ?,,78,,,,,,,cold,2261,recallproc2
D_JOL A 2,133,1,BlockProc2,Block2,137,,,Pop - ?,,28,,,,,,,balloon,9834,recallproc2
D_JOL A 2,133,1,BlockProc2,Block2,138,,,Driver - ?,,11,,,,,,,drive,4271,recallproc2
D_JOL A 2,133,1,BlockProc2,Block2,139,,,Crackle - ?,,67,,,,,,,break,7731,recallproc2
D_JOL A 2,133,1,BlockProc2,Block2,140,,,Money - ?,,37,,,,,,,cash,3892,recallproc2
D_JOL A 2,133,1,BlockProc2,Block2,141,,,Turn - ?,,21,,,,,,,move,7720,recallproc2
D_JOL A 2,133,1,BlockProc2,Block2,142,,,Wrist - ?,,45,,,,,,,band,3745,recallproc2
D_JOL A 2,133,1,BlockProc2,Block2,143,,,Mule - ?,,13,,,,,,,horse,4122,recallproc2
D_JOL A 2,133,1,BlockProc2,Block2,144,,,Mason - ?,,43,,,,,,,jar,3076,recallproc2
D_JOL A 2,133,1,BlockProc2,Block2,145,,,Extension - ?,,1,,,,,,,long,4752,recallproc2
D_JOL A 2,133,1,BlockProc2,Block2,146,,,Razor - ?,,41,,,,,,,shred,4936,recallproc2
D_JOL A 2,133,1,BlockProc2,Block2,147,,,Detective - ?,,5,,,,,,,watch,4761,recallproc2
D_JOL A 2,133,1,BlockProc2,Block2,148,,,Baseball - ?,,36,,,,,,,bat,3193,recallproc2
D_JOL A 2,133,1,BlockProc2,Block2,149,,,Meat - ?,,66,,,,,,,burger,9104,recallproc2
D_JOL A 2,133,1,BlockProc2,Block2,150,,,Shears - ?,,17,,,,,,,sisscors,6234,recallproc2
D_JOL A 2,133,1,BlockProc2,Block2,151,,,Both - ?,,77,,,,,,,two,4839,recallproc2
D_JOL A 2,133,1,BlockProc2,Block2,152,,,Loan - ?,,76,,,,,,,money,3204,recallproc2
D_JOL A 2,133,1,BlockProc2,Block2,153,,,Maze - ?,,64,,,,,,,tunnel,5939,recallproc2
D_JOL A 2,133,1,BlockProc2,Block2,154,,,Gone - ?,,47,,,,,,,leave,4452,recallproc2
D_JOL A 2,133,1,BlockProc2,Block2,155,,,Plane - ?,,34,,,,,,,train,3544,recallproc2
D_JOL A 2,133,1,BlockProc2,Block2,156,,,Cake - ?,,71,,,,,,,pie,4729,recallproc2
D_JOL A 2,133,1,BlockProc2,Block2,157,,,Element - ?,,46,,,,,,,chemical,8499,recallproc2
D_JOL A 2,133,1,BlockProc2,Block2,158,,,Earth - ?,,49,,,,,,,round,3846,recallproc2
D_JOL A 2,133,1,BlockProc2,Block2,159,,,Best - ?,,30,,,,,,,friend,4195,recallproc2
D_JOL A 2,133,1,BlockProc2,Block2,160,,,Thread - ?,,26,,,,,,,weave,3290,recallproc2
D_JOL A 2,133,1,BlockProc2,Block2,161,,,Stretch - ?,,62,,,,,,,pull,3493,recallproc2
D_JOL A 2,133,1,BlockProc2,Block2,162,,,Even - ?,,27,,,,,,,odd,2528,recallproc2
D_JOL A 2,133,1,BlockProc2,Block2,163,,,Litter - ?,,8,,,,,,,cat,2882,recallproc2
D_JOL A 2,133,1,BlockProc2,Block2,164,,,Mirror - ?,,79,,,,,,,sellf,3206,recallproc2
D_JOL A 2,133,1,BlockProc2,Block2,165,,,Phone - ?,,54,,,,,,,number,3204,recallproc2
D_JOL A 2,133,1,BlockProc2,Block2,166,,,Flea - ?,,56,,,,,,,tick,2947,recallproc2
D_JOL A 2,133,1,BlockProc2,Block2,167,,,Vehicle - ?,,65,,,,,,,car,2396,recallproc2
D_JOL A 2,133,1,BlockProc2,Block2,168,,,Sleep - ?,,39,,,,,,,nap,5843,recallproc2
D_JOL A 2,133,1,BlockProc2,Block2,169,,,Bad - ?,,23,,,,,,,good,2552,recallproc2
D_JOL A 2,133,1,BlockProc2,Block2,170,,,Fuzzy - ?,,73,,,,,,,soft,3568,recallproc2
D_JOL A 2,137,1,BlockProc1,Block1,1,,,Shrimp - Fish,,4,,,,,,,,,StudyProc1
D_JOL A 2,137,1,BlockProc1,Block1,2,,,Haircut-Scissors,,1,,,,,,,,,StudyProc1
D_JOL A 2,137,1,BlockProc1,Block1,3,,,Snow - Ice,,3,,,,,,,,,StudyProc1
D_JOL A 2,137,1,BlockProc1,Block1,4,,,Member - Group,,5,,,,,,,,,StudyProc1
D_JOL A 2,137,1,BlockProc1,Block1,5,,,Curtain - Drapes,,2,,,,,,,,,StudyProc1
D_JOL A 2,137,1,BlockProc1,Block1,6,11,,Way - Out,F,11,74,6593,,,,,,,StudyProc3
D_JOL A 2,137,1,BlockProc1,Block1,7,34,,Work - Chore,B,34,65,2873,,,,,,,StudyProc3
D_JOL A 2,137,1,BlockProc1,Block1,8,19,,Orchid - Flower,F,19,78,4604,,,,,,,StudyProc3
D_JOL A 2,137,1,BlockProc1,Block1,9,45,,Trial - Jury,S,45,64,7906,,,,,,,StudyProc3
D_JOL A 2,137,1,BlockProc1,Block1,10,24,,Take - Seize,B,24,,1950,,,,,,,StudyProc3
D_JOL A 2,137,1,BlockProc1,Block1,11,71,,Machine - Position,U,71,76,4852,,,,,,,StudyProc3
D_JOL A 2,137,1,BlockProc1,Block1,12,67,,Death - Business,U,67,78,4228,,,,,,,StudyProc3
D_JOL A 2,137,1,BlockProc1,Block1,13,51,,Pop - Soda,S,51,76,5433,,,,,,,StudyProc3
D_JOL A 2,137,1,BlockProc1,Block1,14,38,,Clothes - Attire,B,38,74,10962,,,,,,,StudyProc3
D_JOL A 2,137,1,BlockProc1,Block1,15,60,,Circle - Round,S,60,73,5759,,,,,,,StudyProc3
D_JOL A 2,137,1,BlockProc1,Block1,16,32,,Hot - Chili,B,32,65,4721,,,,,,,StudyProc3
D_JOL A 2,137,1,BlockProc1,Block1,17,22,,Drink - Sip,B,22,65,3497,,,,,,,StudyProc3
D_JOL A 2,137,1,BlockProc1,Block1,18,40,,Fire - Blaze,B,40,65,3017,,,,,,,StudyProc3
D_JOL A 2,137,1,BlockProc1,Block1,19,69,,Artery - Bronze,U,69,80,4635,,,,,,,StudyProc3
D_JOL A 2,137,1,BlockProc1,Block1,20,56,,Past - Future,S,57,85,5195,,,,,,,StudyProc3
D_JOL A 2,137,1,BlockProc1,Block1,21,41,,Due - Assignment,S,41,90,3995,,,,,,,StudyProc3
D_JOL A 2,137,1,BlockProc1,Block1,22,16,,Discussion - Talk,F,16,64,3558,,,,,,,StudyProc3
D_JOL A 2,137,1,BlockProc1,Block1,23,27,,Bug - Wasp,B,27,50,3875,,,,,,,StudyProc3
D_JOL A 2,137,1,BlockProc1,Block1,24,54,,Choice - Decision,S,54,45,7452,,,,,,,StudyProc3
D_JOL A 2,137,1,BlockProc1,Block1,25,57,,Lettuce - Salad,S,56,78,4432,,,,,,,StudyProc3
D_JOL A 2,137,1,BlockProc1,Block1,26,17,,Herd - Cow,F,17,80,3189,,,,,,,StudyProc3
D_JOL A 2,137,1,BlockProc1,Block1,27,77,,Valley - Add,U,77,56,2839,,,,,,,StudyProc3
D_JOL A 2,137,1,BlockProc1,Block1,28,48,,Kidney - Liver,S,48,76,3585,,,,,,,StudyProc3
D_JOL A 2,137,1,BlockProc1,Block1,29,10,,Paw - Dog,F,10,78,9513,,,,,,,StudyProc3
D_JOL A 2,137,1,BlockProc1,Block1,30,37,,Smell - Stench,B,37,78,4463,,,,,,,StudyProc3
D_JOL A 2,137,1,BlockProc1,Block1,31,3,,Wage - Money,F,3,56,6087,,,,,,,StudyProc3
D_JOL A 2,137,1,BlockProc1,Block1,32,64,,Lift - Woman,U,64,77,4178,,,,,,,StudyProc3
D_JOL A 2,137,1,BlockProc1,Block1,33,23,,Dark - Cave,B,23,59,4606,,,,,,,StudyProc3
D_JOL A 2,137,1,BlockProc1,Block1,34,66,,Discover - Floor,U,66,88,5838,,,,,,,StudyProc3
D_JOL A 2,137,1,BlockProc1,Block1,35,68,,Debate - Sight,U,68,77,1785,,,,,,,StudyProc3
D_JOL A 2,137,1,BlockProc1,Block1,36,25,,Height - Growth,B,25,68,4445,,,,,,,StudyProc3
D_JOL A 2,137,1,BlockProc1,Block1,37,35,,Hunger - Famine,B,35,65,4213,,,,,,,StudyProc3
D_JOL A 2,137,1,BlockProc1,Block1,38,59,,Baby - Child,S,59,78,4975,,,,,,,StudyProc3
D_JOL A 2,137,1,BlockProc1,Block1,39,13,,Bridge - Water,F,13,88,3679,,,,,,,StudyProc3
D_JOL A 2,137,1,BlockProc1,Block1,40,79,,Hide - Sick,U,79,78,3181,,,,,,,StudyProc3
D_JOL A 2,137,1,BlockProc1,Block1,41,9,,Swan - Bird,F,9,70,6910,,,,,,,StudyProc3
D_JOL A 2,137,1,BlockProc1,Block1,42,47,,Grill -Bar,S,47,45,9365,,,,,,,StudyProc3
D_JOL A 2,137,1,BlockProc1,Block1,43,72,,Happy - Car,U,72,55,3652,,,,,,,StudyProc3
D_JOL A 2,137,1,BlockProc1,Block1,44,76,,Sugar - Riddle,U,76,10,2072,,,,,,,StudyProc3
D_JOL A 2,137,1,BlockProc1,Block1,45,31,,Key - Latch,B,31,18,3187,,,,,,,StudyProc3
D_JOL A 2,137,1,BlockProc1,Block1,46,44,,Dump - Waste,S,44,29,4544,,,,,,,StudyProc3
D_JOL A 2,137,1,BlockProc1,Block1,47,30,,Great - Fantastic,B,30,65,5924,,,,,,,StudyProc3
D_JOL A 2,137,1,BlockProc1,Block1,48,75,,Strong - Accident,U,75,76,5483,,,,,,,StudyProc3
D_JOL A 2,137,1,BlockProc1,Block1,49,49,,Begin - End,S,49,,3912,,,,,,,StudyProc3
D_JOL A 2,137,1,BlockProc1,Block1,50,26,,Sentence - Word,B,26,0,2374,,,,,,,StudyProc3
D_JOL A 2,137,1,BlockProc1,Block1,51,39,,Plane - Pilot,B,39,45,2839,,,,,,,StudyProc3
D_JOL A 2,137,1,BlockProc1,Block1,52,70,,Fix - Hand,U,70,30,14179,,,,,,,StudyProc3
D_JOL A 2,137,1,BlockProc1,Block1,53,43,,Location - Site,S,43,20,8544,,,,,,,StudyProc3
D_JOL A 2,137,1,BlockProc1,Block1,54,20,,Tuna -  Fish,F,20,86,2471,,,,,,,StudyProc3
D_JOL A 2,137,1,BlockProc1,Block1,55,33,,Ball - Racket,B,33,6,6037,,,,,,,StudyProc3
D_JOL A 2,137,1,BlockProc1,Block1,56,7,,Bitter - Cold,F,7,61,5085,,,,,,,StudyProc3
D_JOL A 2,137,1,BlockProc1,Block1,57,55,,Shoe - Foot,S,55,40,6919,,,,,,,StudyProc3
D_JOL A 2,137,1,BlockProc1,Block1,58,29,,Law - Attorney,B,29,37,3906,,,,,,,StudyProc3
D_JOL A 2,137,1,BlockProc1,Block1,59,80,,King - Vase,U,80,46,4697,,,,,,,StudyProc3
D_JOL A 2,137,1,BlockProc1,Block1,60,21,,Full - Enough,B,21,89,3009,,,,,,,StudyProc3
D_JOL A 2,137,1,BlockProc1,Block1,61,58,,Honey - Bee,S,58,100,1304,,,,,,,StudyProc3
D_JOL A 2,137,1,BlockProc1,Block1,62,4,,Chisel - Hammer,F,4,19,7377,,,,,,,StudyProc3
D_JOL A 2,137,1,BlockProc1,Block1,63,14,,Geology - Rock,F,14,19,6099,,,,,,,StudyProc3
D_JOL A 2,137,1,BlockProc1,Block1,64,2,,Digestion - Stomach,F,2,7,1800,,,,,,,StudyProc3
D_JOL A 2,137,1,BlockProc1,Block1,65,12,,Hygiene - Clean,F,12,,2948,,,,,,,StudyProc3
D_JOL A 2,137,1,BlockProc1,Block1,66,18,,Credit - Card,F,18,80,2921,,,,,,,StudyProc3
D_JOL A 2,137,1,BlockProc1,Block1,67,28,,Math - Division,B,28,76,3684,,,,,,,StudyProc3
D_JOL A 2,137,1,BlockProc1,Block1,68,78,,Cash - Would,U,78,0,1952,,,,,,,StudyProc3
D_JOL A 2,137,1,BlockProc1,Block1,69,1,,Delinquent - Bad,F,1,67,1905,,,,,,,StudyProc3
D_JOL A 2,137,1,BlockProc1,Block1,70,53,,Bathroom - Toilet,S,53,58,4234,,,,,,,StudyProc3
D_JOL A 2,137,1,BlockProc1,Block1,71,73,,Allow - Tuck,U,73,20,5715,,,,,,,StudyProc3
D_JOL A 2,137,1,BlockProc1,Block1,72,63,,Park - Hungry,U,63,38,5628,,,,,,,StudyProc3
D_JOL A 2,137,1,BlockProc1,Block1,73,65,,Soon - Belt,U,65,0,1739,,,,,,,StudyProc3
D_JOL A 2,137,1,BlockProc1,Block1,74,52,,Wine - Cheese,S,52,13,4534,,,,,,,StudyProc3
D_JOL A 2,137,1,BlockProc1,Block1,75,62,,Dietary - Sacking,U,62,0,1667,,,,,,,StudyProc3
D_JOL A 2,137,1,BlockProc1,Block1,76,8,,Root - Plant,F,8,36,8488,,,,,,,StudyProc3
D_JOL A 2,137,1,BlockProc1,Block1,77,50,,Blow - Wind,S,50,35,5869,,,,,,,StudyProc3
D_JOL A 2,137,1,BlockProc1,Block1,78,61,,Pusher - Clutter,U,61,15,3411,,,,,,,StudyProc3
D_JOL A 2,137,1,BlockProc1,Block1,79,6,,Hornet - Sting,F,6,54,2984,,,,,,,StudyProc3
D_JOL A 2,137,1,BlockProc1,Block1,80,15,,Revolution - War,F,15,13,2780,,,,,,,StudyProc3
D_JOL A 2,137,1,BlockProc1,Block1,81,46,,Architecture - Design,S,46,20,4319,,,,,,,StudyProc3
D_JOL A 2,137,1,BlockProc1,Block1,82,74,,Art - Lion,U,74,12,2537,,,,,,,StudyProc3
D_JOL A 2,137,1,BlockProc1,Block1,83,42,,Number - Amount,S,42,0,4441,,,,,,,StudyProc3
D_JOL A 2,137,1,BlockProc1,Block1,84,36,,Sleep - Drowsy,B,36,100,2464,,,,,,,StudyProc3
D_JOL A 2,137,1,BlockProc1,Block1,85,5,,Editor - News,F,5,30,8507,,,,,,,StudyProc3
D_JOL A 2,137,1,BlockProc1,Block1,86,,,Grab - Take,,2,,,,,,,,,StudyProc2
D_JOL A 2,137,1,BlockProc1,Block1,87,,,Geese - Goose,,1,,,,,,,,,StudyProc2
D_JOL A 2,137,1,BlockProc1,Block1,88,,,Catcher - Baseball,,4,,,,,,,,,StudyProc2
D_JOL A 2,137,1,BlockProc1,Block1,89,,,Friendliness - Nice,,3,,,,,,,,,StudyProc2
D_JOL A 2,137,1,BlockProc1,Block1,90,,,Trees - Green,,5,,,,,,,,,StudyProc2
D_JOL A 2,137,1,BlockProc1,Block1,91,,,Sentence - ?,,26,,,,,line,7922,,,recallproc1
D_JOL A 2,137,1,BlockProc1,Block1,92,,,Blow - ?,,50,,,,,wind,2461,,,recallproc1
D_JOL A 2,137,1,BlockProc1,Block1,93,,,Revolution - ?,,15,,,,,change,3559,,,recallproc1
D_JOL A 2,137,1,BlockProc1,Block1,94,,,Debate - ?,,68,,,,,sight,3828,,,recallproc1
D_JOL A 2,137,1,BlockProc1,Block1,95,,,Choice - ?,,54,,,,,choose,6990,,,recallproc1
D_JOL A 2,137,1,BlockProc1,Block1,96,,,Swan - ?,,9,,,,,cold,39103,,,recallproc1
D_JOL A 2,137,1,BlockProc1,Block1,97,,,Credit - ?,,18,,,,,card,2309,,,recallproc1
D_JOL A 2,137,1,BlockProc1,Block1,98,,,Root - ?,,8,,,,,tree,2181,,,recallproc1
D_JOL A 2,137,1,BlockProc1,Block1,99,,,Chisel - ?,,4,,,,,hammer,3083,,,recallproc1
D_JOL A 2,137,1,BlockProc1,Block1,100,,,Trial - ?,,45,,,,,jury,2444,,,recallproc1
D_JOL A 2,137,1,BlockProc1,Block1,101,,,Digestion - ?,,2,,,,,stomach,3239,,,recallproc1
D_JOL A 2,137,1,BlockProc1,Block1,102,,,Tuna - ?,,20,,,,,fish,2369,,,recallproc1
D_JOL A 2,137,1,BlockProc1,Block1,103,,,Location - ?,,43,,,,,address,11751,,,recallproc1
D_JOL A 2,137,1,BlockProc1,Block1,104,,,Take - ?,,24,,,,,grab,20964,,,recallproc1
D_JOL A 2,137,1,BlockProc1,Block1,105,,,Great - ?,,30,,,,,fantastic,6393,,,recallproc1
D_JOL A 2,137,1,BlockProc1,Block1,106,,,Dietary - ?,,62,,,,,needs,3498,,,recallproc1
D_JOL A 2,137,1,BlockProc1,Block1,107,,,Bitter - ?,,7,,,,,cold,2098,,,recallproc1
D_JOL A 2,137,1,BlockProc1,Block1,108,,,Clothes - ?,,38,,,,,warm,7315,,,recallproc1
D_JOL A 2,137,1,BlockProc1,Block1,109,,,Dump - ?,,44,,,,,waste,3918,,,recallproc1
D_JOL A 2,137,1,BlockProc1,Block1,110,,,Artery - ?,,69,,,,,bronze,3989,,,recallproc1
D_JOL A 2,137,1,BlockProc1,Block1,111,,,Herd - ?,,17,,,,,cow,1976,,,recallproc1
D_JOL A 2,137,1,BlockProc1,Block1,112,,,Key - ?,,31,,,,,latch,3246,,,recallproc1
D_JOL A 2,137,1,BlockProc1,Block1,113,,,Discussion - ?,,16,,,,,talk,3816,,,recallproc1
D_JOL A 2,137,1,BlockProc1,Block1,114,,,Due - ?,,41,,,,,assignments,3659,,,recallproc1
D_JOL A 2,137,1,BlockProc1,Block1,115,,,Happy - ?,,72,,,,,fun,13004,,,recallproc1
D_JOL A 2,137,1,BlockProc1,Block1,116,,,Wage - ?,,3,,,,,earn,7454,,,recallproc1
D_JOL A 2,137,1,BlockProc1,Block1,117,,,Bridge - ?,,13,,,,,water,3100,,,recallproc1
D_JOL A 2,137,1,BlockProc1,Block1,118,,,Hunger - ?,,35,,,,,famine,2572,,,recallproc1
D_JOL A 2,137,1,BlockProc1,Block1,119,,,Drink - ?,,22,,,,,water,2714,,,recallproc1
D_JOL A 2,137,1,BlockProc1,Block1,120,,,Law - ?,,29,,,,,crime,4498,,,recallproc1
D_JOL A 2,137,1,BlockProc1,Block1,121,,,Cash - ?,,78,,,,,back,3969,,,recallproc1
D_JOL A 2,137,1,BlockProc1,Block1,122,,,Begin - ?,,49,,,,,end,2677,,,recallproc1
D_JOL A 2,137,1,BlockProc1,Block1,123,,,Strong - ?,,75,,,,,weak,5935,,,recallproc1
D_JOL A 2,137,1,BlockProc1,Block1,124,,,Number - ?,,42,,,,,digits,5395,,,recallproc1
D_JOL A 2,137,1,BlockProc1,Block1,125,,,Sleep - ?,,36,,,,,wake,4085,,,recallproc1
D_JOL A 2,137,1,BlockProc1,Block1,126,,,Allow - ?,,73,,,,,not,6468,,,recallproc1
D_JOL A 2,137,1,BlockProc1,Block1,127,,,Baby - ?,,59,,,,,child,2331,,,recallproc1
D_JOL A 2,137,1,BlockProc1,Block1,128,,,Hide - ?,,79,,,,,seek,27026,,,recallproc1
D_JOL A 2,137,1,BlockProc1,Block1,129,,,Death - ?,,67,,,,,baed,3351,,,recallproc1
D_JOL A 2,137,1,BlockProc1,Block1,130,,,Past - ?,,57,,,,,future,2749,,,recallproc1
D_JOL A 2,137,1,BlockProc1,Block1,131,,,Pusher - ?,,61,,,,,clutter,5651,,,recallproc1
D_JOL A 2,137,1,BlockProc1,Block1,132,,,Machine - ?,,71,,,,,position,5307,,,recallproc1
D_JOL A 2,137,1,BlockProc1,Block1,133,,,Kidney - ?,,48,,,,,liver,3216,,,recallproc1
D_JOL A 2,137,1,BlockProc1,Block1,134,,,Bathroom - ?,,53,,,,,toilet,2605,,,recallproc1
D_JOL A 2,137,1,BlockProc1,Block1,135,,,Sugar - ?,,76,,,,,salt,2592,,,recallproc1
D_JOL A 2,137,1,BlockProc1,Block1,136,,,Honey - ?,,58,,,,,bee,1780,,,recallproc1
D_JOL A 2,137,1,BlockProc1,Block1,137,,,Valley - ?,,77,,,,,adds,3915,,,recallproc1
D_JOL A 2,137,1,BlockProc1,Block1,138,,,Park - ?,,63,,,,,state,3833,,,recallproc1
D_JOL A 2,137,1,BlockProc1,Block1,139,,,Editor - ?,,5,,,,,news,2387,,,recallproc1
D_JOL A 2,137,1,BlockProc1,Block1,140,,,Discover - ?,,66,,,,,floor,3208,,,recallproc1
D_JOL A 2,137,1,BlockProc1,Block1,141,,,Ball - ?,,33,,,,,room,2516,,,recallproc1
D_JOL A 2,137,1,BlockProc1,Block1,142,,,Hornet - ?,,6,,,,,sting,2772,,,recallproc1
D_JOL A 2,137,1,BlockProc1,Block1,143,,,Soon - ?,,65,,,,,coming,5177,,,recallproc1
D_JOL A 2,137,1,BlockProc1,Block1,144,,,King - ?,,80,,,,,queen,23844,,,recallproc1
D_JOL A 2,137,1,BlockProc1,Block1,145,,,Lift - ?,,64,,,,,up,2354,,,recallproc1
D_JOL A 2,137,1,BlockProc1,Block1,146,,,Math - ?,,28,,,,,division,4000,,,recallproc1
D_JOL A 2,137,1,BlockProc1,Block1,147,,,Dark - ?,,23,,,,,cave,2796,,,recallproc1
D_JOL A 2,137,1,BlockProc1,Block1,148,,,Orchid - ?,,19,,,,,flower,2504,,,recallproc1
D_JOL A 2,137,1,BlockProc1,Block1,149,,,Full - ?,,21,,,,,ness,1856,,,recallproc1
D_JOL A 2,137,1,BlockProc1,Block1,150,,,Plane - ?,,39,,,,,pilot,3163,,,recallproc1
D_JOL A 2,137,1,BlockProc1,Block1,151,,,Height - ?,,25,,,,,growth,3417,,,recallproc1
D_JOL A 2,137,1,BlockProc1,Block1,152,,,Shoe - ?,,55,,,,,foot,2100,,,recallproc1
D_JOL A 2,137,1,BlockProc1,Block1,153,,,Lettuce - ?,,56,,,,,salad,2373,,,recallproc1
D_JOL A 2,137,1,BlockProc1,Block1,154,,,Bug - ?,,27,,,,,wasp,6115,,,recallproc1
D_JOL A 2,137,1,BlockProc1,Block1,155,,,Geology - ?,,14,,,,,rock,4143,,,recallproc1
D_JOL A 2,137,1,BlockProc1,Block1,156,,,Paw - ?,,10,,,,,dog,3044,,,recallproc1
D_JOL A 2,137,1,BlockProc1,Block1,157,,,Fix - ?,,70,,,,,net,5824,,,recallproc1
D_JOL A 2,137,1,BlockProc1,Block1,158,,,Work - ?,,34,,,,,place,4127,,,recallproc1
D_JOL A 2,137,1,BlockProc1,Block1,159,,,Architecture - ?,,46,,,,,design,3205,,,recallproc1
D_JOL A 2,137,1,BlockProc1,Block1,160,,,Smell - ?,,37,,,,,stench,3216,,,recallproc1
D_JOL A 2,137,1,BlockProc1,Block1,161,,,Art - ?,,74,,,,,beautiful,5891,,,recallproc1
D_JOL A 2,137,1,BlockProc1,Block1,162,,,Delinquent - ?,,1,,,,,bad,2081,,,recallproc1
D_JOL A 2,137,1,BlockProc1,Block1,163,,,Wine - ?,,52,,,,,cheese,2963,,,recallproc1
D_JOL A 2,137,1,BlockProc1,Block1,164,,,Circle - ?,,60,,,,,round,2624,,,recallproc1
D_JOL A 2,137,1,BlockProc1,Block1,165,,,Way - ?,,11,,,,,out,2348,,,recallproc1
D_JOL A 2,137,1,BlockProc1,Block1,166,,,Grill - ?,,47,,,,,bar,1987,,,recallproc1
D_JOL A 2,137,1,BlockProc1,Block1,167,,,Hygiene - ?,,12,,,,,health,2576,,,recallproc1
D_JOL A 2,137,1,BlockProc1,Block1,168,,,Fire - ?,,40,,,,,blaze,2958,,,recallproc1
D_JOL A 2,137,1,BlockProc1,Block1,169,,,Pop - ?,,51,,,,,soda,2563,,,recallproc1
D_JOL A 2,137,1,BlockProc1,Block1,170,,,Hot - ?,,32,,,,,chilli,4705,,,recallproc1
D_JOL A 2,137,1,BlockProc2,Block2,1,,,Sheriff - Police,,1,,,,,,,,,StudyProc4
D_JOL A 2,137,1,BlockProc2,Block2,2,,,Hide - Scare,,2,,,,,,,,,StudyProc4
D_JOL A 2,137,1,BlockProc2,Block2,3,,,Malt - Chocolate,,5,,,,,,,,,StudyProc4
D_JOL A 2,137,1,BlockProc2,Block2,4,,,Disintegrate - Disappear,,3,,,,,,,,,StudyProc4
D_JOL A 2,137,1,BlockProc2,Block2,5,,,Essay - Write,,4,,,,,,,,,StudyProc4
D_JOL A 2,137,1,BlockProc2,Block2,6,,40,Fight - Brawl,B,40,,,45,3634,,,,,StudyProc5
D_JOL A 2,137,1,BlockProc2,Block2,7,,19,Chill - Cold,F,19,,,67,4672,,,,,StudyProc5
D_JOL A 2,137,1,BlockProc2,Block2,8,,20,Affection - Love,F,20,,,9,2913,,,,,StudyProc5
D_JOL A 2,137,1,BlockProc2,Block2,9,,77,Temperature - Morning,U,77,,,0,3043,,,,,StudyProc5
D_JOL A 2,137,1,BlockProc2,Block2,10,,7,Furry - Dog,F,7,,,100,2683,,,,,StudyProc5
D_JOL A 2,137,1,BlockProc2,Block2,11,,59,Tantrum - Temper,S,59,,,67,3493,,,,,StudyProc5
D_JOL A 2,137,1,BlockProc2,Block2,12,,67,Shell - Snake,U,67,,,0,2615,,,,,StudyProc5
D_JOL A 2,137,1,BlockProc2,Block2,13,,68,Listen - Fiction,U,68,,,0,1336,,,,,StudyProc5
D_JOL A 2,137,1,BlockProc2,Block2,14,,43,Mason - Jar,S,43,,,0,1452,,,,,StudyProc5
D_JOL A 2,137,1,BlockProc2,Block2,15,,52,Safety - Seatbelt,S,52,,,30,3666,,,,,StudyProc5
D_JOL A 2,137,1,BlockProc2,Block2,16,,37,Money - Banker,B,37,,,67,2210,,,,,StudyProc5
D_JOL A 2,137,1,BlockProc2,Block2,17,,48,Water - Drink,S,48,,,100,1614,,,,,StudyProc5
D_JOL A 2,137,1,BlockProc2,Block2,18,,76,Both - Ounce,U,76,,,0,1297,,,,,StudyProc5
D_JOL A 2,137,1,BlockProc2,Block2,19,,69,Keys - Joke,U,69,,,0,1130,,,,,StudyProc5
D_JOL A 2,137,1,BlockProc2,Block2,20,,41,Razor - Shave,S,41,,,1,2467,,,,,StudyProc5
D_JOL A 2,137,1,BlockProc2,Block2,21,,3,Cactus - Plant,F,3,,,50,5016,,,,,StudyProc5
D_JOL A 2,137,1,BlockProc2,Block2,22,,15,Incense - Smell,F,15,,,44,5507,,,,,StudyProc5
D_JOL A 2,137,1,BlockProc2,Block2,23,,31,Cat - Panther,B,31,,,34,5565,,,,,StudyProc5
D_JOL A 2,137,1,BlockProc2,Block2,24,,47,Gone - Away,S,47,,,34,2723,,,,,StudyProc5
D_JOL A 2,137,1,BlockProc2,Block2,25,,49,Earth - Ground,S,49,,,22,4411,,,,,StudyProc5
D_JOL A 2,137,1,BlockProc2,Block2,26,,46,Element - Carbon,S,46,,,0,3450,,,,,StudyProc5
D_JOL A 2,137,1,BlockProc2,Block2,27,,65,Meat - Obtain,U,65,,,0,1779,,,,,StudyProc5
D_JOL A 2,137,1,BlockProc2,Block2,28,,12,Chop - Cut,F,12,,,8,938,,,,,StudyProc5
D_JOL A 2,137,1,BlockProc2,Block2,29,,26,Thread - Thimble,B,26,,,0,4117,,,,,StudyProc5
D_JOL A 2,137,1,BlockProc2,Block2,30,,23,Bad - Villain,B,23,,,67,3709,,,,,StudyProc5
D_JOL A 2,137,1,BlockProc2,Block2,31,,39,Sleep - Nap,B,39,,,35,4409,,,,,StudyProc5
D_JOL A 2,137,1,BlockProc2,Block2,32,,44,Candle - Wax,S,44,,,25,3801,,,,,StudyProc5
D_JOL A 2,137,1,BlockProc2,Block2,33,,13,Mule - Donkey,F,13,,,4,5268,,,,,StudyProc5
D_JOL A 2,137,1,BlockProc2,Block2,34,,33,Dead - Coffin,B,33,,,100,1230,,,,,StudyProc5
D_JOL A 2,137,1,BlockProc2,Block2,35,,42,Rights - Equal,S,42,,,16,3214,,,,,StudyProc5
D_JOL A 2,137,1,BlockProc2,Block2,36,,56,Flea - Tick,S,56,,,68,2973,,,,,StudyProc5
D_JOL A 2,137,1,BlockProc2,Block2,37,,24,Bird - Penguin,B,24,,,4,14291,,,,,StudyProc5
D_JOL A 2,137,1,BlockProc2,Block2,38,,74,Lease - Toil,U,74,,,0,2889,,,,,StudyProc5
D_JOL A 2,137,1,BlockProc2,Block2,39,,63,Give - Steak,U,63,,,0,1117,,,,,StudyProc5
D_JOL A 2,137,1,BlockProc2,Block2,40,,57,Loud - Noise,S,57,,,78,2486,,,,,StudyProc5
D_JOL A 2,137,1,BlockProc2,Block2,41,,70,Cake - Clothes,U,70,,,0,1009,,,,,StudyProc5
D_JOL A 2,137,1,BlockProc2,Block2,42,,71,Name - Hate,U,71,,,0,1036,,,,,StudyProc5
D_JOL A 2,137,1,BlockProc2,Block2,43,,72,Fuzzy - Bang,U,72,,,15,1875,,,,,StudyProc5
D_JOL A 2,137,1,BlockProc2,Block2,44,,34,Plane - Aircraft,B,34,,,24,2998,,,,,StudyProc5
D_JOL A 2,137,1,BlockProc2,Block2,45,,25,Star - Actress,B,25,,,54,2905,,,,,StudyProc5
D_JOL A 2,137,1,BlockProc2,Block2,46,,50,Alone - Lonely,S,50,,,18,3378,,,,,StudyProc5
D_JOL A 2,137,1,BlockProc2,Block2,47,,22,Car - Windshield,B,22,,,7,4776,,,,,StudyProc5
D_JOL A 2,137,1,BlockProc2,Block2,48,,62,Stretch - Cloth,U,62,,,0,2154,,,,,StudyProc5
D_JOL A 2,137,1,BlockProc2,Block2,49,,61,Justice - Maroon,U,61,,,0,1477,,,,,StudyProc5
D_JOL A 2,137,1,BlockProc2,Block2,50,,6,Adjourn - End,F,6,,,13,5187,,,,,StudyProc5
D_JOL A 2,137,1,BlockProc2,Block2,51,,4,Shoelace - Tie,F,4,,,0,1809,,,,,StudyProc5
D_JOL A 2,137,1,BlockProc2,Block2,52,,5,Detective - Mystery,F,5,,,34,3977,,,,,StudyProc5
D_JOL A 2,137,1,BlockProc2,Block2,53,,53,Truth - Lie,S,53,,,18,5667,,,,,StudyProc5
D_JOL A 2,137,1,BlockProc2,Block2,54,,8,Litter - Trash,F,8,,,34,6428,,,,,StudyProc5
D_JOL A 2,137,1,BlockProc2,Block2,55,,55,Rod - Reel,S,55,,,0,1872,,,,,StudyProc5
D_JOL A 2,137,1,BlockProc2,Block2,56,,2,Clue - Game,F,2,,,0,2689,,,,,StudyProc5
D_JOL A 2,137,1,BlockProc2,Block2,57,,58,Own - Have,S,58,,,3,1483,,,,,StudyProc5
D_JOL A 2,137,1,BlockProc2,Block2,58,,32,Glass - Breakable,B,32,,,4,1627,,,,,StudyProc5
D_JOL A 2,137,1,BlockProc2,Block2,59,,17,Shears - Scissors,F,17,,,14,4449,,,,,StudyProc5
D_JOL A 2,137,1,BlockProc2,Block2,60,,73,Moat - Clear,U,73,,,0,1460,,,,,StudyProc5
D_JOL A 2,137,1,BlockProc2,Block2,61,,51,Dry - Wet,S,51,,,89,1891,,,,,StudyProc5
D_JOL A 2,137,1,BlockProc2,Block2,62,,28,Pop - Balloon,B,28,,,67,3189,,,,,StudyProc5
D_JOL A 2,137,1,BlockProc2,Block2,63,,80,Charm - Vehicle,U,80,,,23,5671,,,,,StudyProc5
D_JOL A 2,137,1,BlockProc2,Block2,64,,36,Baseball - League,B,36,,,18,5318,,,,,StudyProc5
D_JOL A 2,137,1,BlockProc2,Block2,65,,66,Crackle - Able,U,66,,,0,2015,,,,,StudyProc5
D_JOL A 2,137,1,BlockProc2,Block2,66,,21,Turn - Flip,B,21,,,13,5926,,,,,StudyProc5
D_JOL A 2,137,1,BlockProc2,Block2,67,,35,Fish - Sardine,B,35,,,13,5897,,,,,StudyProc5
D_JOL A 2,137,1,BlockProc2,Block2,68,,64,Maze - Election,U,64,,,0,1075,,,,,StudyProc5
D_JOL A 2,137,1,BlockProc2,Block2,69,,29,Fruit - Strawberry,B,29,,,0,1305,,,,,StudyProc5
D_JOL A 2,137,1,BlockProc2,Block2,70,,60,Sun - Tan,S,60,,,0,2062,,,,,StudyProc5
D_JOL A 2,137,1,BlockProc2,Block2,71,,75,Loan - Sign,U,75,,,0,1192,,,,,StudyProc5
D_JOL A 2,137,1,BlockProc2,Block2,72,,30,Best - Favorite,B,30,,,0,4818,,,,,StudyProc5
D_JOL A 2,137,1,BlockProc2,Block2,73,,45,Wrist - Bracelet,S,45,,,16,6152,,,,,StudyProc5
D_JOL A 2,137,1,BlockProc2,Block2,74,,9,Cherry - Red,F,9,,,45,3926,,,,,StudyProc5
D_JOL A 2,137,1,BlockProc2,Block2,75,,14,Document - Paper,F,14,,,21,3686,,,,,StudyProc5
D_JOL A 2,137,1,BlockProc2,Block2,76,,1,Extension - Long,F,1,,,23,3322,,,,,StudyProc5
D_JOL A 2,137,1,BlockProc2,Block2,77,,79,Main - Scar,U,79,,,0,1651,,,,,StudyProc5
D_JOL A 2,137,1,BlockProc2,Block2,78,,10,Scalp - Head,F,10,,,9,2118,,,,,StudyProc5
D_JOL A 2,137,1,BlockProc2,Block2,79,,18,Feud - Fight,F,18,,,7,2965,,,,,StudyProc5
D_JOL A 2,137,1,BlockProc2,Block2,80,,78,Mirror - Children,U,78,,,8,3113,,,,,StudyProc5
D_JOL A 2,137,1,BlockProc2,Block2,81,,27,Even - Revenge,B,27,,,6,2818,,,,,StudyProc5
D_JOL A 2,137,1,BlockProc2,Block2,82,,54,Phone - Communication,S,54,,,0,6195,,,,,StudyProc5
D_JOL A 2,137,1,BlockProc2,Block2,83,,38,Honest - Truthful,B,38,,,0,1524,,,,,StudyProc5
D_JOL A 2,137,1,BlockProc2,Block2,84,,16,Dine - Eat,F,16,,,4,5764,,,,,StudyProc5
D_JOL A 2,137,1,BlockProc2,Block2,85,,11,Driver - Car,F,11,,,,3496,,,,,StudyProc5
D_JOL A 2,137,1,BlockProc2,Block2,86,,,Contest - Competition,,5,,,,,,,,,StudyProc6
D_JOL A 2,137,1,BlockProc2,Block2,87,,,Deciet - Cheat,,1,,,,,,,,,StudyProc6
D_JOL A 2,137,1,BlockProc2,Block2,88,,,Magician - Magic,,4,,,,,,,,,StudyProc6
D_JOL A 2,137,1,BlockProc2,Block2,89,,,Mind - Matter,,2,,,,,,,,,StudyProc6
D_JOL A 2,137,1,BlockProc2,Block2,90,,,Deaf - Hear,,3,,,,,,,,,StudyProc6
D_JOL A 2,137,1,BlockProc2,Block2,91,,,Tantrum - ?,,59,,,,,,,fight,4697,recallproc2
D_JOL A 2,137,1,BlockProc2,Block2,92,,,Turn - ?,,21,,,,,,,table,3712,recallproc2
D_JOL A 2,137,1,BlockProc2,Block2,93,,,Clue - ?,,2,,,,,,,mystery,3695,recallproc2
D_JOL A 2,137,1,BlockProc2,Block2,94,,,Car - ?,,22,,,,,,,driver,4814,recallproc2
D_JOL A 2,137,1,BlockProc2,Block2,95,,,Give - ?,,63,,,,,,,take,2376,recallproc2
D_JOL A 2,137,1,BlockProc2,Block2,96,,,Earth - ?,,49,,,,,,,ground,3414,recallproc2
D_JOL A 2,137,1,BlockProc2,Block2,97,,,Cat - ?,,31,,,,,,,panther,5689,recallproc2
D_JOL A 2,137,1,BlockProc2,Block2,98,,,Glass - ?,,32,,,,,,,breakable,3927,recallproc2
D_JOL A 2,137,1,BlockProc2,Block2,99,,,Fight - ?,,40,,,,,,,brawl,2942,recallproc2
D_JOL A 2,137,1,BlockProc2,Block2,100,,,Baseball - ?,,36,,,,,,,bat,2020,recallproc2
D_JOL A 2,137,1,BlockProc2,Block2,101,,,Shell - ?,,68,,,,,,,snake,3224,recallproc2
D_JOL A 2,137,1,BlockProc2,Block2,102,,,Pop - ?,,28,,,,,,,up,2723,recallproc2
D_JOL A 2,137,1,BlockProc2,Block2,103,,,Name - ?,,72,,,,,,,caste,5394,recallproc2
D_JOL A 2,137,1,BlockProc2,Block2,104,,,Fuzzy - ?,,73,,,,,,,bright,3732,recallproc2
D_JOL A 2,137,1,BlockProc2,Block2,105,,,Affection - ?,,20,,,,,,,love,2130,recallproc2
D_JOL A 2,137,1,BlockProc2,Block2,106,,,Adjourn - ?,,6,,,,,,,join,3594,recallproc2
D_JOL A 2,137,1,BlockProc2,Block2,107,,,Star - ?,,25,,,,,,,studded,3222,recallproc2
D_JOL A 2,137,1,BlockProc2,Block2,108,,,Safety - ?,,52,,,,,,,belt,3376,recallproc2
D_JOL A 2,137,1,BlockProc2,Block2,109,,,Loan - ?,,76,,,,,,,bank,2381,recallproc2
D_JOL A 2,137,1,BlockProc2,Block2,110,,,Feud - ?,,18,,,,,,,fight,2850,recallproc2
D_JOL A 2,137,1,BlockProc2,Block2,111,,,Mirror - ?,,79,,,,,,,break,2645,recallproc2
D_JOL A 2,137,1,BlockProc2,Block2,112,,,Meat - ?,,66,,,,,,,eat,3232,recallproc2
D_JOL A 2,137,1,BlockProc2,Block2,113,,,Detective - ?,,5,,,,,,,mystery,3266,recallproc2
D_JOL A 2,137,1,BlockProc2,Block2,114,,,Moat - ?,,74,,,,,,,lake,7188,recallproc2
D_JOL A 2,137,1,BlockProc2,Block2,115,,,Listen - ?,,69,,,,,,,hear,2349,recallproc2
D_JOL A 2,137,1,BlockProc2,Block2,116,,,Money - ?,,37,,,,,,,monkey,4212,recallproc2
D_JOL A 2,137,1,BlockProc2,Block2,117,,,Mule - ?,,13,,,,,,,donkey,2878,recallproc2
D_JOL A 2,137,1,BlockProc2,Block2,118,,,Maze - ?,,64,,,,,,,terror,5255,recallproc2
D_JOL A 2,137,1,BlockProc2,Block2,119,,,Sun - ?,,60,,,,,,,tan,3023,recallproc2
D_JOL A 2,137,1,BlockProc2,Block2,120,,,Lease - ?,,75,,,,,,,hold,3026,recallproc2
D_JOL A 2,137,1,BlockProc2,Block2,121,,,Rights - ?,,42,,,,,,,equal,3525,recallproc2
D_JOL A 2,137,1,BlockProc2,Block2,122,,,Water,,48,,,,,,,drink,4027,recallproc2
D_JOL A 2,137,1,BlockProc2,Block2,123,,,Cactus - ?,,3,,,,,,,palnt,2285,recallproc2
D_JOL A 2,137,1,BlockProc2,Block2,124,,,Loud - ?,,57,,,,,,,noise,3167,recallproc2
D_JOL A 2,137,1,BlockProc2,Block2,125,,,Dine - ?,,16,,,,,,,reaturant,4485,recallproc2
D_JOL A 2,137,1,BlockProc2,Block2,126,,,Chill - ?,,19,,,,,,,hot,3004,recallproc2
D_JOL A 2,137,1,BlockProc2,Block2,127,,,Mason - ?,,43,,,,,,,ball,5784,recallproc2
D_JOL A 2,137,1,BlockProc2,Block2,128,,,Cherry - ?,,9,,,,,,,red,1642,recallproc2
D_JOL A 2,137,1,BlockProc2,Block2,129,,,Stretch - ?,,62,,,,,,,out,2566,recallproc2
D_JOL A 2,137,1,BlockProc2,Block2,130,,,Alone - ?,,50,,,,,,,lonely,5156,recallproc2
D_JOL A 2,137,1,BlockProc2,Block2,131,,,Best - ?,,30,,,,,,,friend,2927,recallproc2
D_JOL A 2,137,1,BlockProc2,Block2,132,,,Element - ?,,46,,,,,,,carbon,5342,recallproc2
D_JOL A 2,137,1,BlockProc2,Block2,133,,,Dead - ?,,33,,,,,,,ccoffin,3178,recallproc2
D_JOL A 2,137,1,BlockProc2,Block2,134,,,Truth - ?,,53,,,,,,,lies,3464,recallproc2
D_JOL A 2,137,1,BlockProc2,Block2,135,,,Temperature - ?,,78,,,,,,,morning,3808,recallproc2
D_JOL A 2,137,1,BlockProc2,Block2,136,,,Bad - ?,,23,,,,,,,smell,4131,recallproc2
D_JOL A 2,137,1,BlockProc2,Block2,137,,,Gone - ?,,47,,,,,,,ran,4081,recallproc2
D_JOL A 2,137,1,BlockProc2,Block2,138,,,Even - ?,,27,,,,,,,odd,2137,recallproc2
D_JOL A 2,137,1,BlockProc2,Block2,139,,,Chop - ?,,12,,,,,,,meat,2360,recallproc2
D_JOL A 2,137,1,BlockProc2,Block2,140,,,Driver - ?,,11,,,,,,,truck,4518,recallproc2
D_JOL A 2,137,1,BlockProc2,Block2,141,,,Main - ?,,80,,,,,,,road,2972,recallproc2
D_JOL A 2,137,1,BlockProc2,Block2,142,,,Vehicle - ?,,65,,,,,,,safety,3617,recallproc2
D_JOL A 2,137,1,BlockProc2,Block2,143,,,Fish - ?,,35,,,,,,,sardines,5884,recallproc2
D_JOL A 2,137,1,BlockProc2,Block2,144,,,Bird - ?,,24,,,,,,,penguin,9994,recallproc2
D_JOL A 2,137,1,BlockProc2,Block2,145,,,Thread - ?,,26,,,,,,,muffelr,7112,recallproc2
D_JOL A 2,137,1,BlockProc2,Block2,146,,,Extension - ?,,1,,,,,,,deadline,3587,recallproc2
D_JOL A 2,137,1,BlockProc2,Block2,147,,,Keys - ?,,70,,,,,,,lock,4760,recallproc2
D_JOL A 2,137,1,BlockProc2,Block2,148,,,Both - ?,,77,,,,,,,never,3028,recallproc2
D_JOL A 2,137,1,BlockProc2,Block2,149,,,Incense - ?,,15,,,,,,,smell,2519,recallproc2
D_JOL A 2,137,1,BlockProc2,Block2,150,,,Sleep - ?,,39,,,,,,,awake,3871,recallproc2
D_JOL A 2,137,1,BlockProc2,Block2,151,,,Own - ?,,58,,,,,,,borrow,5127,recallproc2
D_JOL A 2,137,1,BlockProc2,Block2,152,,,Litter - ?,,8,,,,,,,waste,5028,recallproc2
D_JOL A 2,137,1,BlockProc2,Block2,153,,,Plane - ?,,34,,,,,,,aircraft,5997,recallproc2
D_JOL A 2,137,1,BlockProc2,Block2,154,,,Candle - ?,,44,,,,,,,holder,3399,recallproc2
D_JOL A 2,137,1,BlockProc2,Block2,155,,,Fruit - ?,,29,,,,,,,orange,5195,recallproc2
D_JOL A 2,137,1,BlockProc2,Block2,156,,,Phone - ?,,54,,,,,,,call,2125,recallproc2
D_JOL A 2,137,1,BlockProc2,Block2,157,,,Document - ?,,14,,,,,,,paper,2749,recallproc2
D_JOL A 2,137,1,BlockProc2,Block2,158,,,Flea - ?,,56,,,,,,,scratch,8731,recallproc2
D_JOL A 2,137,1,BlockProc2,Block2,159,,,Shoelace - ?,,4,,,,,,,legs,4637,recallproc2
D_JOL A 2,137,1,BlockProc2,Block2,160,,,Scalp - ?,,10,,,,,,,head,2302,recallproc2
D_JOL A 2,137,1,BlockProc2,Block2,161,,,Crackle - ?,,67,,,,,,,sound,5967,recallproc2
D_JOL A 2,137,1,BlockProc2,Block2,162,,,Cake - ?,,71,,,,,,,clothes,4673,recallproc2
D_JOL A 2,137,1,BlockProc2,Block2,163,,,Justice - ?,,61,,,,,,,right,4657,recallproc2
D_JOL A 2,137,1,BlockProc2,Block2,164,,,Shears - ?,,17,,,,,,,scissors,5401,recallproc2
D_JOL A 2,137,1,BlockProc2,Block2,165,,,Razor - ?,,41,,,,,,,shave,3003,recallproc2
D_JOL A 2,137,1,BlockProc2,Block2,166,,,Rod - ?,,55,,,,,,,hit,2167,recallproc2
D_JOL A 2,137,1,BlockProc2,Block2,167,,,Furry - ?,,7,,,,,,,dog,1941,recallproc2
D_JOL A 2,137,1,BlockProc2,Block2,168,,,Wrist - ?,,45,,,,,,,watch,2701,recallproc2
D_JOL A 2,137,1,BlockProc2,Block2,169,,,Honest - ?,,38,,,,,,,person,2989,recallproc2
D_JOL A 2,137,1,BlockProc2,Block2,170,,,Dry - ?,,51,,,,,,,temperature,7034,recallproc2
D_JOL B 2,130,1,BlockProc2,Block2,1,,,Hide - Scare,,2,,,,,,,,,StudyProc4
D_JOL B 2,130,1,BlockProc2,Block2,2,,,Disintegrate - Disappear,,3,,,,,,,,,StudyProc4
D_JOL B 2,130,1,BlockProc2,Block2,3,,,Malt - Chocolate,,5,,,,,,,,,StudyProc4
D_JOL B 2,130,1,BlockProc2,Block2,4,,,Essay - Write,,4,,,,,,,,,StudyProc4
D_JOL B 2,130,1,BlockProc2,Block2,5,,,Sheriff - Police,,1,,,,,,,,,StudyProc4
D_JOL B 2,130,1,BlockProc2,Block2,6,,66,Crackle - Able,U,66,,,60,2843,,,,,StudyProc5
D_JOL B 2,130,1,BlockProc2,Block2,7,,68,Listen - Fiction,U,68,,,30,4727,,,,,StudyProc5
D_JOL B 2,130,1,BlockProc2,Block2,8,,57,Loud - Noise,S,57,,,65,6480,,,,,StudyProc5
D_JOL B 2,130,1,BlockProc2,Block2,9,,79,Main - Scar,U,79,,,40,3138,,,,,StudyProc5
D_JOL B 2,130,1,BlockProc2,Block2,10,,60,Sun - Tan,S,60,,,100,4763,,,,,StudyProc5
D_JOL B 2,130,1,BlockProc2,Block2,11,,51,Dry - Wet,S,51,,,89,5752,,,,,StudyProc5
D_JOL B 2,130,1,BlockProc2,Block2,12,,3,Cactus - Plant,F,3,,,92,5243,,,,,StudyProc5
D_JOL B 2,130,1,BlockProc2,Block2,13,,1,Extension - Long,F,1,,,82,8402,,,,,StudyProc5
D_JOL B 2,130,1,BlockProc2,Block2,14,,13,Mule - Donkey,F,13,,,100,3517,,,,,StudyProc5
D_JOL B 2,130,1,BlockProc2,Block2,15,,75,Loan - Sign,U,75,,,25,4135,,,,,StudyProc5
D_JOL B 2,130,1,BlockProc2,Block2,16,,53,Truth - Lie,S,53,,,88,6685,,,,,StudyProc5
D_JOL B 2,130,1,BlockProc2,Block2,17,,8,Litter - Trash,F,8,,,91,4510,,,,,StudyProc5
D_JOL B 2,130,1,BlockProc2,Block2,18,,11,Driver - Car,F,11,,,75,3318,,,,,StudyProc5
D_JOL B 2,130,1,BlockProc2,Block2,19,,42,Rights - Equal,S,42,,,84,6209,,,,,StudyProc5
D_JOL B 2,130,1,BlockProc2,Block2,20,,21,Turn - Flip,B,21,,,20,4791,,,,,StudyProc5
D_JOL B 2,130,1,BlockProc2,Block2,21,,14,Document - Paper,F,14,,,45,3752,,,,,StudyProc5
D_JOL B 2,130,1,BlockProc2,Block2,22,,63,Give - Steak,U,63,,,32,3710,,,,,StudyProc5
D_JOL B 2,130,1,BlockProc2,Block2,23,,29,Fruit - Strawberry,B,29,,,50,3082,,,,,StudyProc5
D_JOL B 2,130,1,BlockProc2,Block2,24,,25,Star - Actress,B,25,,,68,5240,,,,,StudyProc5
D_JOL B 2,130,1,BlockProc2,Block2,25,,12,Chop - Cut,F,12,,,79,5620,,,,,StudyProc5
D_JOL B 2,130,1,BlockProc2,Block2,26,,78,Mirror - Children,U,78,,,34,3290,,,,,StudyProc5
D_JOL B 2,130,1,BlockProc2,Block2,27,,45,Wrist - Bracelet,S,45,,,40,7723,,,,,StudyProc5
D_JOL B 2,130,1,BlockProc2,Block2,28,,33,Dead - Coffin,B,33,,,96,5845,,,,,StudyProc5
D_JOL B 2,130,1,BlockProc2,Block2,29,,72,Fuzzy - Bang,U,72,,,15,3640,,,,,StudyProc5
D_JOL B 2,130,1,BlockProc2,Block2,30,,32,Glass - Breakable,B,32,,,56,3674,,,,,StudyProc5
D_JOL B 2,130,1,BlockProc2,Block2,31,,67,Shell - Snake,U,67,,,35,7426,,,,,StudyProc5
D_JOL B 2,130,1,BlockProc2,Block2,32,,7,Furry - Dog,F,7,,,76,2690,,,,,StudyProc5
D_JOL B 2,130,1,BlockProc2,Block2,33,,10,Scalp - Head,F,10,,,90,5815,,,,,StudyProc5
D_JOL B 2,130,1,BlockProc2,Block2,34,,20,Affection - Love,F,20,,,98,3561,,,,,StudyProc5
D_JOL B 2,130,1,BlockProc2,Block2,35,,43,Mason - Jar,S,43,,,81,4784,,,,,StudyProc5
D_JOL B 2,130,1,BlockProc2,Block2,36,,48,Water - Drink,S,48,,,100,9605,,,,,StudyProc5
D_JOL B 2,130,1,BlockProc2,Block2,37,,70,Cake - Clothes,U,70,,,12,2136,,,,,StudyProc5
D_JOL B 2,130,1,BlockProc2,Block2,38,,47,Gone - Away,S,47,,,71,4911,,,,,StudyProc5
D_JOL B 2,130,1,BlockProc2,Block2,39,,9,Cherry - Red,F,9,,,85,3223,,,,,StudyProc5
D_JOL B 2,130,1,BlockProc2,Block2,40,,56,Flea - Tick,S,56,,,79,6896,,,,,StudyProc5
D_JOL B 2,130,1,BlockProc2,Block2,41,,61,Justice - Maroon,U,61,,,21,5354,,,,,StudyProc5
D_JOL B 2,130,1,BlockProc2,Block2,42,,46,Element - Carbon,S,46,,,55,3417,,,,,StudyProc5
D_JOL B 2,130,1,BlockProc2,Block2,43,,2,Clue - Game,F,2,,,67,3600,,,,,StudyProc5
D_JOL B 2,130,1,BlockProc2,Block2,44,,18,Feud - Fight,F,18,,,69,5232,,,,,StudyProc5
D_JOL B 2,130,1,BlockProc2,Block2,45,,52,Safety - Seatbelt,S,52,,,83,4176,,,,,StudyProc5
D_JOL B 2,130,1,BlockProc2,Block2,46,,71,Name - Hate,U,71,,,10,1859,,,,,StudyProc5
D_JOL B 2,130,1,BlockProc2,Block2,47,,23,Bad - Villain,B,23,,,60,5133,,,,,StudyProc5
D_JOL B 2,130,1,BlockProc2,Block2,48,,54,Phone - Communication,S,54,,,63,5262,,,,,StudyProc5
D_JOL B 2,130,1,BlockProc2,Block2,49,,24,Bird - Penguin,B,24,,,54,14385,,,,,StudyProc5
D_JOL B 2,130,1,BlockProc2,Block2,50,,49,Earth - Ground,S,49,,,50,5408,,,,,StudyProc5
D_JOL B 2,130,1,BlockProc2,Block2,51,,55,Rod - Reel,S,55,,,5,3593,,,,,StudyProc5
D_JOL B 2,130,1,BlockProc2,Block2,52,,76,Both - Ounce,U,76,,,1,3371,,,,,StudyProc5
D_JOL B 2,130,1,BlockProc2,Block2,53,,4,Shoelace - Tie,F,4,,,10,3527,,,,,StudyProc5
D_JOL B 2,130,1,BlockProc2,Block2,54,,62,Stretch - Cloth,U,62,,,20,5189,,,,,StudyProc5
D_JOL B 2,130,1,BlockProc2,Block2,55,,26,Thread - Thimble,B,26,,,59,4889,,,,,StudyProc5
D_JOL B 2,130,1,BlockProc2,Block2,56,,65,Meat - Obtain,U,65,,,30,3218,,,,,StudyProc5
D_JOL B 2,130,1,BlockProc2,Block2,57,,50,Alone - Lonely,S,50,,,67,5904,,,,,StudyProc5
D_JOL B 2,130,1,BlockProc2,Block2,58,,35,Fish - Sardine,B,35,,,70,7765,,,,,StudyProc5
D_JOL B 2,130,1,BlockProc2,Block2,59,,5,Detective - Mystery,F,5,,,75,5032,,,,,StudyProc5
D_JOL B 2,130,1,BlockProc2,Block2,60,,73,Moat - Clear,U,73,,,10,2409,,,,,StudyProc5
D_JOL B 2,130,1,BlockProc2,Block2,61,,16,Dine - Eat,F,16,,,90,3407,,,,,StudyProc5
D_JOL B 2,130,1,BlockProc2,Block2,62,,19,Chill - Cold,F,19,,,80,3443,,,,,StudyProc5
D_JOL B 2,130,1,BlockProc2,Block2,63,,40,Fight - Brawl,B,40,,,74,8396,,,,,StudyProc5
D_JOL B 2,130,1,BlockProc2,Block2,64,,28,Pop - Balloon,B,28,,,60,3942,,,,,StudyProc5
D_JOL B 2,130,1,BlockProc2,Block2,65,,44,Candle - Wax,S,44,,,82,11134,,,,,StudyProc5
D_JOL B 2,130,1,BlockProc2,Block2,66,,31,Cat - Panther,B,31,,,86,4582,,,,,StudyProc5
D_JOL B 2,130,1,BlockProc2,Block2,67,,6,Adjourn - End,F,6,,,87,4610,,,,,StudyProc5
D_JOL B 2,130,1,BlockProc2,Block2,68,,69,Keys - Joke,U,69,,,4,3460,,,,,StudyProc5
D_JOL B 2,130,1,BlockProc2,Block2,69,,39,Sleep - Nap,B,39,,,100,1726,,,,,StudyProc5
D_JOL B 2,130,1,BlockProc2,Block2,70,,37,Money - Banker,B,37,,,60,2997,,,,,StudyProc5
D_JOL B 2,130,1,BlockProc2,Block2,71,,34,Plane - Aircraft,B,34,,,54,3461,,,,,StudyProc5
D_JOL B 2,130,1,BlockProc2,Block2,72,,30,Best - Favorite,B,30,,,95,9429,,,,,StudyProc5
D_JOL B 2,130,1,BlockProc2,Block2,73,,59,Tantrum - Temper,S,59,,,99,3918,,,,,StudyProc5
D_JOL B 2,130,1,BlockProc2,Block2,74,,41,Razor - Shave,S,41,,,94,4527,,,,,StudyProc5
D_JOL B 2,130,1,BlockProc2,Block2,75,,17,Shears - Scissors,F,17,,,88,8974,,,,,StudyProc5
D_JOL B 2,130,1,BlockProc2,Block2,76,,36,Baseball - League,B,36,,,89,6237,,,,,StudyProc5
D_JOL B 2,130,1,BlockProc2,Block2,77,,22,Car - Windshield,B,22,,,50,4744,,,,,StudyProc5
D_JOL B 2,130,1,BlockProc2,Block2,78,,64,Maze - Election,U,64,,,13,2708,,,,,StudyProc5
D_JOL B 2,130,1,BlockProc2,Block2,79,,74,Lease - Toil,U,74,,,7,4672,,,,,StudyProc5
D_JOL B 2,130,1,BlockProc2,Block2,80,,58,Own - Have,S,58,,,95,6800,,,,,StudyProc5
D_JOL B 2,130,1,BlockProc2,Block2,81,,77,Temperature - Morning,U,77,,,46,3863,,,,,StudyProc5
D_JOL B 2,130,1,BlockProc2,Block2,82,,15,Incense - Smell,F,15,,,77,3586,,,,,StudyProc5
D_JOL B 2,130,1,BlockProc2,Block2,83,,38,Honest - Truthful,B,38,,,100,2409,,,,,StudyProc5
D_JOL B 2,130,1,BlockProc2,Block2,84,,27,Even - Revenge,B,27,,,93,6672,,,,,StudyProc5
D_JOL B 2,130,1,BlockProc2,Block2,85,,80,Charm - Vehicle,U,80,,,3,3262,,,,,StudyProc5
D_JOL B 2,130,1,BlockProc2,Block2,86,,,Deciet - Cheat,,1,,,,,,,,,StudyProc6
D_JOL B 2,130,1,BlockProc2,Block2,87,,,Deaf - Hear,,3,,,,,,,,,StudyProc6
D_JOL B 2,130,1,BlockProc2,Block2,88,,,Magician - Magic,,4,,,,,,,,,StudyProc6
D_JOL B 2,130,1,BlockProc2,Block2,89,,,Contest - Competition,,5,,,,,,,,,StudyProc6
D_JOL B 2,130,1,BlockProc2,Block2,90,,,Mind - Matter,,2,,,,,,,,,StudyProc6
D_JOL B 2,130,1,BlockProc2,Block2,91,,,Dine - ?,,16,,,,,,,eat,8285,recallproc2
D_JOL B 2,130,1,BlockProc2,Block2,92,,,Wrist - ?,,45,,,,,,,braclet,3776,recallproc2
D_JOL B 2,130,1,BlockProc2,Block2,93,,,Pop - ?,,28,,,,,,,popcorn,9191,recallproc2
D_JOL B 2,130,1,BlockProc2,Block2,94,,,Mason - ?,,43,,,,,,,jar,2118,recallproc2
D_JOL B 2,130,1,BlockProc2,Block2,95,,,Even - ?,,27,,,,,,,revenge,2456,recallproc2
D_JOL B 2,130,1,BlockProc2,Block2,96,,,Bird - ?,,24,,,,,,,peacock,12868,recallproc2
D_JOL B 2,130,1,BlockProc2,Block2,97,,,Feud - ?,,18,,,,,,,beef,6808,recallproc2
D_JOL B 2,130,1,BlockProc2,Block2,98,,,Detective - ?,,5,,,,,,,mystery,2982,recallproc2
D_JOL B 2,130,1,BlockProc2,Block2,99,,,Adjourn - ?,,6,,,,,,,end,1662,recallproc2
D_JOL B 2,130,1,BlockProc2,Block2,100,,,Car - ?,,22,,,,,,,windshield,5194,recallproc2
D_JOL B 2,130,1,BlockProc2,Block2,101,,,Shears - ?,,17,,,,,,,siccors,2361,recallproc2
D_JOL B 2,130,1,BlockProc2,Block2,102,,,Glass - ?,,32,,,,,,,breakable,3361,recallproc2
D_JOL B 2,130,1,BlockProc2,Block2,103,,,Scalp - ?,,10,,,,,,,hair,8338,recallproc2
D_JOL B 2,130,1,BlockProc2,Block2,104,,,Fuzzy - ?,,73,,,,,,,memory,10418,recallproc2
D_JOL B 2,130,1,BlockProc2,Block2,105,,,Dead - ?,,33,,,,,,,coffin,3952,recallproc2
D_JOL B 2,130,1,BlockProc2,Block2,106,,,Loan - ?,,76,,,,,,,sign,2521,recallproc2
D_JOL B 2,130,1,BlockProc2,Block2,107,,,Fruit - ?,,29,,,,,,,strawberry,6529,recallproc2
D_JOL B 2,130,1,BlockProc2,Block2,108,,,Document - ?,,14,,,,,,,paper,3796,recallproc2
D_JOL B 2,130,1,BlockProc2,Block2,109,,,Cat - ?,,31,,,,,,,panther,3491,recallproc2
D_JOL B 2,130,1,BlockProc2,Block2,110,,,Mule - ?,,13,,,,,,,donkey,3134,recallproc2
D_JOL B 2,130,1,BlockProc2,Block2,111,,,Moat - ?,,74,,,,,,,meat,3143,recallproc2
D_JOL B 2,130,1,BlockProc2,Block2,112,,,Both - ?,,77,,,,,,,together,6704,recallproc2
D_JOL B 2,130,1,BlockProc2,Block2,113,,,Mirror - ?,,79,,,,,,,children,6122,recallproc2
D_JOL B 2,130,1,BlockProc2,Block2,114,,,Rod - ?,,55,,,,,,,con,2308,recallproc2
D_JOL B 2,130,1,BlockProc2,Block2,115,,,Razor - ?,,41,,,,,,,shave,2862,recallproc2
D_JOL B 2,130,1,BlockProc2,Block2,116,,,Thread - ?,,26,,,,,,,sew,3684,recallproc2
D_JOL B 2,130,1,BlockProc2,Block2,117,,,Clue - ?,,2,,,,,,,game,2263,recallproc2
D_JOL B 2,130,1,BlockProc2,Block2,118,,,Turn - ?,,21,,,,,,,around,2635,recallproc2
D_JOL B 2,130,1,BlockProc2,Block2,119,,,Element - ?,,46,,,,,,,carbon,7192,recallproc2
D_JOL B 2,130,1,BlockProc2,Block2,120,,,Cactus - ?,,3,,,,,,,dessert,9375,recallproc2
D_JOL B 2,130,1,BlockProc2,Block2,121,,,Candle - ?,,44,,,,,,,wax,3166,recallproc2
D_JOL B 2,130,1,BlockProc2,Block2,122,,,Sleep - ?,,39,,,,,,,nap,1943,recallproc2
D_JOL B 2,130,1,BlockProc2,Block2,123,,,Litter - ?,,8,,,,,,,paper,3960,recallproc2
D_JOL B 2,130,1,BlockProc2,Block2,124,,,Bad - ?,,23,,,,,,,evil,2745,recallproc2
D_JOL B 2,130,1,BlockProc2,Block2,125,,,Stretch - ?,,62,,,,,,,arms,5546,recallproc2
D_JOL B 2,130,1,BlockProc2,Block2,126,,,Cake - ?,,71,,,,,,,desert,4355,recallproc2
D_JOL B 2,130,1,BlockProc2,Block2,127,,,Cherry - ?,,9,,,,,,,red,14603,recallproc2
D_JOL B 2,130,1,BlockProc2,Block2,128,,,Driver - ?,,11,,,,,,,person,4385,recallproc2
D_JOL B 2,130,1,BlockProc2,Block2,129,,,Meat - ?,,66,,,,,,,moat,5064,recallproc2
D_JOL B 2,130,1,BlockProc2,Block2,130,,,Truth - ?,,53,,,,,,,honest,3100,recallproc2
D_JOL B 2,130,1,BlockProc2,Block2,131,,,Own - ?,,58,,,,,,,minr,12687,recallproc2
D_JOL B 2,130,1,BlockProc2,Block2,132,,,Gone - ?,,47,,,,,,,away,2258,recallproc2
D_JOL B 2,130,1,BlockProc2,Block2,133,,,Name - ?,,72,,,,,,,first,13646,recallproc2
D_JOL B 2,130,1,BlockProc2,Block2,134,,,Listen - ?,,69,,,,,,,hear,1771,recallproc2
D_JOL B 2,130,1,BlockProc2,Block2,135,,,Water,,48,,,,,,,drink,3995,recallproc2
D_JOL B 2,130,1,BlockProc2,Block2,136,,,Fight - ?,,40,,,,,,,feud,3858,recallproc2
D_JOL B 2,130,1,BlockProc2,Block2,137,,,Fish - ?,,35,,,,,,,water,2678,recallproc2
D_JOL B 2,130,1,BlockProc2,Block2,138,,,Safety - ?,,52,,,,,,,haven,3514,recallproc2
D_JOL B 2,130,1,BlockProc2,Block2,139,,,Chop - ?,,12,,,,,,,cut,2852,recallproc2
D_JOL B 2,130,1,BlockProc2,Block2,140,,,Crackle - ?,,67,,,,,,,pop,2833,recallproc2
D_JOL B 2,130,1,BlockProc2,Block2,141,,,Vehicle - ?,,65,,,,,,,car,2831,recallproc2
D_JOL B 2,130,1,BlockProc2,Block2,142,,,Incense - ?,,15,,,,,,,smell,2668,recallproc2
D_JOL B 2,130,1,BlockProc2,Block2,143,,,Sun - ?,,60,,,,,,,tan,1816,recallproc2
D_JOL B 2,130,1,BlockProc2,Block2,144,,,Earth - ?,,49,,,,,,,ground,8199,recallproc2
D_JOL B 2,130,1,BlockProc2,Block2,145,,,Money - ?,,37,,,,,,,banker,4542,recallproc2
D_JOL B 2,130,1,BlockProc2,Block2,146,,,Honest - ?,,38,,,,,,,truthful,3927,recallproc2
D_JOL B 2,130,1,BlockProc2,Block2,147,,,Star - ?,,25,,,,,,,actress,3705,recallproc2
D_JOL B 2,130,1,BlockProc2,Block2,148,,,Alone - ?,,50,,,,,,,lonley,2251,recallproc2
D_JOL B 2,130,1,BlockProc2,Block2,149,,,Phone - ?,,54,,,,,,,communication,7047,recallproc2
D_JOL B 2,130,1,BlockProc2,Block2,150,,,Main - ?,,80,,,,,,,star,4932,recallproc2
D_JOL B 2,130,1,BlockProc2,Block2,151,,,Temperature - ?,,78,,,,,,,morning,2998,recallproc2
D_JOL B 2,130,1,BlockProc2,Block2,152,,,Tantrum - ?,,59,,,,,,,temper,2309,recallproc2
D_JOL B 2,130,1,BlockProc2,Block2,153,,,Chill - ?,,19,,,,,,,cold,1887,recallproc2
D_JOL B 2,130,1,BlockProc2,Block2,154,,,Furry - ?,,7,,,,,,,animals,3235,recallproc2
D_JOL B 2,130,1,BlockProc2,Block2,155,,,Flea - ?,,56,,,,,,,dog,2536,recallproc2
D_JOL B 2,130,1,BlockProc2,Block2,156,,,Keys - ?,,70,,,,,,,start,2865,recallproc2
D_JOL B 2,130,1,BlockProc2,Block2,157,,,Affection - ?,,20,,,,,,,love,1733,recallproc2
D_JOL B 2,130,1,BlockProc2,Block2,158,,,Lease - ?,,75,,,,,,,rent,6167,recallproc2
D_JOL B 2,130,1,BlockProc2,Block2,159,,,Shoelace - ?,,4,,,,,,,tie,2375,recallproc2
D_JOL B 2,130,1,BlockProc2,Block2,160,,,Give - ?,,63,,,,,,,recieve,3767,recallproc2
D_JOL B 2,130,1,BlockProc2,Block2,161,,,Shell - ?,,68,,,,,,,turtle,14015,recallproc2
D_JOL B 2,130,1,BlockProc2,Block2,162,,,Plane - ?,,34,,,,,,,sky,5405,recallproc2
D_JOL B 2,130,1,BlockProc2,Block2,163,,,Extension - ?,,1,,,,,,,long,6363,recallproc2
D_JOL B 2,130,1,BlockProc2,Block2,164,,,Loud - ?,,57,,,,,,,hear,6403,recallproc2
D_JOL B 2,130,1,BlockProc2,Block2,165,,,Best - ?,,30,,,,,,,favorite,2291,recallproc2
D_JOL B 2,130,1,BlockProc2,Block2,166,,,Justice - ?,,61,,,,,,,even,6197,recallproc2
D_JOL B 2,130,1,BlockProc2,Block2,167,,,Dry - ?,,51,,,,,,,hot,2228,recallproc2
D_JOL B 2,130,1,BlockProc2,Block2,168,,,Maze - ?,,64,,,,,,,runner,5251,recallproc2
D_JOL B 2,130,1,BlockProc2,Block2,169,,,Rights - ?,,42,,,,,,,equal,4559,recallproc2
D_JOL B 2,130,1,BlockProc2,Block2,170,,,Baseball - ?,,36,,,,,,,league,3183,recallproc2
D_JOL B 2,130,1,BlockProc1,Block1,1,,,Snow - Ice,,3,,,,,,,,,StudyProc1
D_JOL B 2,130,1,BlockProc1,Block1,2,,,Curtain - Drapes,,2,,,,,,,,,StudyProc1
D_JOL B 2,130,1,BlockProc1,Block1,3,,,Shrimp - Fish,,4,,,,,,,,,StudyProc1
D_JOL B 2,130,1,BlockProc1,Block1,4,,,Haircut-Scissors,,1,,,,,,,,,StudyProc1
D_JOL B 2,130,1,BlockProc1,Block1,5,,,Member - Group,,5,,,,,,,,,StudyProc1
D_JOL B 2,130,1,BlockProc1,Block1,6,80,,King - Vase,U,80,60,1298,,,,,,,StudyProc3
D_JOL B 2,130,1,BlockProc1,Block1,7,17,,Herd - Cow,F,17,40,3592,,,,,,,StudyProc3
D_JOL B 2,130,1,BlockProc1,Block1,8,40,,Fire - Blaze,B,40,77,3080,,,,,,,StudyProc3
D_JOL B 2,130,1,BlockProc1,Block1,9,65,,Soon - Belt,U,65,55,3368,,,,,,,StudyProc3
D_JOL B 2,130,1,BlockProc1,Block1,10,48,,Kidney - Liver,S,48,70,3396,,,,,,,StudyProc3
D_JOL B 2,130,1,BlockProc1,Block1,11,43,,Location - Site,S,43,65,3338,,,,,,,StudyProc3
D_JOL B 2,130,1,BlockProc1,Block1,12,74,,Art - Lion,U,74,34,2411,,,,,,,StudyProc3
D_JOL B 2,130,1,BlockProc1,Block1,13,64,,Lift - Woman,U,64,20,5124,,,,,,,StudyProc3
D_JOL B 2,130,1,BlockProc1,Block1,14,23,,Dark - Cave,B,23,60,2836,,,,,,,StudyProc3
D_JOL B 2,130,1,BlockProc1,Block1,15,1,,Delinquent - Bad,F,1,85,3649,,,,,,,StudyProc3
D_JOL B 2,130,1,BlockProc1,Block1,16,56,,Past - Future,S,57,90,3391,,,,,,,StudyProc3
D_JOL B 2,130,1,BlockProc1,Block1,17,36,,Sleep - Drowsy,B,36,59,4871,,,,,,,StudyProc3
D_JOL B 2,130,1,BlockProc1,Block1,18,68,,Debate - Sight,U,68,10,2978,,,,,,,StudyProc3
D_JOL B 2,130,1,BlockProc1,Block1,19,25,,Height - Growth,B,25,50,5105,,,,,,,StudyProc3
D_JOL B 2,130,1,BlockProc1,Block1,20,2,,Digestion - Stomach,F,2,100,3266,,,,,,,StudyProc3
D_JOL B 2,130,1,BlockProc1,Block1,21,51,,Pop - Soda,S,51,98,2816,,,,,,,StudyProc3
D_JOL B 2,130,1,BlockProc1,Block1,22,12,,Hygiene - Clean,F,12,89,3892,,,,,,,StudyProc3
D_JOL B 2,130,1,BlockProc1,Block1,23,16,,Discussion - Talk,F,16,77,4163,,,,,,,StudyProc3
D_JOL B 2,130,1,BlockProc1,Block1,24,44,,Dump - Waste,S,44,80,5688,,,,,,,StudyProc3
D_JOL B 2,130,1,BlockProc1,Block1,25,15,,Revolution - War,F,15,88,6256,,,,,,,StudyProc3
D_JOL B 2,130,1,BlockProc1,Block1,26,67,,Death - Business,U,67,23,1820,,,,,,,StudyProc3
D_JOL B 2,130,1,BlockProc1,Block1,27,77,,Valley - Add,U,77,2,2526,,,,,,,StudyProc3
D_JOL B 2,130,1,BlockProc1,Block1,28,78,,Cash - Would,U,78,15,3650,,,,,,,StudyProc3
D_JOL B 2,130,1,BlockProc1,Block1,29,4,,Chisel - Hammer,F,4,40,3461,,,,,,,StudyProc3
D_JOL B 2,130,1,BlockProc1,Block1,30,73,,Allow - Tuck,U,73,1,1674,,,,,,,StudyProc3
D_JOL B 2,130,1,BlockProc1,Block1,31,53,,Bathroom - Toilet,S,53,100,2509,,,,,,,StudyProc3
D_JOL B 2,130,1,BlockProc1,Block1,32,79,,Hide - Sick,U,79,30,3639,,,,,,,StudyProc3
D_JOL B 2,130,1,BlockProc1,Block1,33,46,,Architecture - Design,S,46,96,4063,,,,,,,StudyProc3
D_JOL B 2,130,1,BlockProc1,Block1,34,28,,Math - Division,B,28,80,6414,,,,,,,StudyProc3
D_JOL B 2,130,1,BlockProc1,Block1,35,22,,Drink - Sip,B,22,67,4521,,,,,,,StudyProc3
D_JOL B 2,130,1,BlockProc1,Block1,36,26,,Sentence - Word,B,26,53,6350,,,,,,,StudyProc3
D_JOL B 2,130,1,BlockProc1,Block1,37,57,,Lettuce - Salad,S,56,84,3984,,,,,,,StudyProc3
D_JOL B 2,130,1,BlockProc1,Block1,38,3,,Wage - Money,F,3,83,7620,,,,,,,StudyProc3
D_JOL B 2,130,1,BlockProc1,Block1,39,11,,Way - Out,F,11,50,4606,,,,,,,StudyProc3
D_JOL B 2,130,1,BlockProc1,Block1,40,76,,Sugar - Riddle,U,76,4,2783,,,,,,,StudyProc3
D_JOL B 2,130,1,BlockProc1,Block1,41,27,,Bug - Wasp,B,27,60,4284,,,,,,,StudyProc3
D_JOL B 2,130,1,BlockProc1,Block1,42,20,,Tuna -  Fish,F,20,100,2240,,,,,,,StudyProc3
D_JOL B 2,130,1,BlockProc1,Block1,43,29,,Law - Attorney,B,29,98,3380,,,,,,,StudyProc3
D_JOL B 2,130,1,BlockProc1,Block1,44,42,,Number - Amount,S,42,68,8387,,,,,,,StudyProc3
D_JOL B 2,130,1,BlockProc1,Block1,45,39,,Plane - Pilot,B,39,84,6326,,,,,,,StudyProc3
D_JOL B 2,130,1,BlockProc1,Block1,46,69,,Artery - Bronze,U,69,1,1502,,,,,,,StudyProc3
D_JOL B 2,130,1,BlockProc1,Block1,47,54,,Choice - Decision,S,54,26,1630,,,,,,,StudyProc3
D_JOL B 2,130,1,BlockProc1,Block1,48,6,,Hornet - Sting,F,6,77,2504,,,,,,,StudyProc3
D_JOL B 2,130,1,BlockProc1,Block1,49,47,,Grill -Bar,S,47,69,3365,,,,,,,StudyProc3
D_JOL B 2,130,1,BlockProc1,Block1,50,70,,Fix - Hand,U,70,53,3984,,,,,,,StudyProc3
D_JOL B 2,130,1,BlockProc1,Block1,51,59,,Baby - Child,S,59,99,3571,,,,,,,StudyProc3
D_JOL B 2,130,1,BlockProc1,Block1,52,50,,Blow - Wind,S,50,100,3679,,,,,,,StudyProc3
D_JOL B 2,130,1,BlockProc1,Block1,53,13,,Bridge - Water,F,13,100,2036,,,,,,,StudyProc3
D_JOL B 2,130,1,BlockProc1,Block1,54,61,,Pusher - Clutter,U,61,2,3109,,,,,,,StudyProc3
D_JOL B 2,130,1,BlockProc1,Block1,55,38,,Clothes - Attire,B,38,88,6503,,,,,,,StudyProc3
D_JOL B 2,130,1,BlockProc1,Block1,56,35,,Hunger - Famine,B,35,92,5097,,,,,,,StudyProc3
D_JOL B 2,130,1,BlockProc1,Block1,57,8,,Root - Plant,F,8,70,3553,,,,,,,StudyProc3
D_JOL B 2,130,1,BlockProc1,Block1,58,58,,Honey - Bee,S,58,100,1833,,,,,,,StudyProc3
D_JOL B 2,130,1,BlockProc1,Block1,59,18,,Credit - Card,F,18,100,1898,,,,,,,StudyProc3
D_JOL B 2,130,1,BlockProc1,Block1,60,33,,Ball - Racket,B,33,7,3879,,,,,,,StudyProc3
D_JOL B 2,130,1,BlockProc1,Block1,61,7,,Bitter - Cold,F,7,99,1959,,,,,,,StudyProc3
D_JOL B 2,130,1,BlockProc1,Block1,62,63,,Park - Hungry,U,63,65,2230,,,,,,,StudyProc3
D_JOL B 2,130,1,BlockProc1,Block1,63,72,,Happy - Car,U,72,3,1852,,,,,,,StudyProc3
D_JOL B 2,130,1,BlockProc1,Block1,64,41,,Due - Assignment,S,41,100,3202,,,,,,,StudyProc3
D_JOL B 2,130,1,BlockProc1,Block1,65,24,,Take - Seize,B,24,100,2248,,,,,,,StudyProc3
D_JOL B 2,130,1,BlockProc1,Block1,66,52,,Wine - Cheese,S,52,86,4798,,,,,,,StudyProc3
D_JOL B 2,130,1,BlockProc1,Block1,67,32,,Hot - Chili,B,32,40,3586,,,,,,,StudyProc3
D_JOL B 2,130,1,BlockProc1,Block1,68,49,,Begin - End,S,49,91,5898,,,,,,,StudyProc3
D_JOL B 2,130,1,BlockProc1,Block1,69,31,,Key - Latch,B,31,34,4341,,,,,,,StudyProc3
D_JOL B 2,130,1,BlockProc1,Block1,70,55,,Shoe - Foot,S,55,39,3072,,,,,,,StudyProc3
D_JOL B 2,130,1,BlockProc1,Block1,71,75,,Strong - Accident,U,75,1,1243,,,,,,,StudyProc3
D_JOL B 2,130,1,BlockProc1,Block1,72,19,,Orchid - Flower,F,19,69,5888,,,,,,,StudyProc3
D_JOL B 2,130,1,BlockProc1,Block1,73,66,,Discover - Floor,U,66,5,1911,,,,,,,StudyProc3
D_JOL B 2,130,1,BlockProc1,Block1,74,9,,Swan - Bird,F,9,87,12039,,,,,,,StudyProc3
D_JOL B 2,130,1,BlockProc1,Block1,75,37,,Smell - Stench,B,37,100,2302,,,,,,,StudyProc3
D_JOL B 2,130,1,BlockProc1,Block1,76,10,,Paw - Dog,F,10,100,1645,,,,,,,StudyProc3
D_JOL B 2,130,1,BlockProc1,Block1,77,30,,Great - Fantastic,B,30,80,5690,,,,,,,StudyProc3
D_JOL B 2,130,1,BlockProc1,Block1,78,34,,Work - Chore,B,34,2,2601,,,,,,,StudyProc3
D_JOL B 2,130,1,BlockProc1,Block1,79,45,,Trial - Jury,S,45,78,2505,,,,,,,StudyProc3
D_JOL B 2,130,1,BlockProc1,Block1,80,62,,Dietary - Sacking,U,62,10,3315,,,,,,,StudyProc3
D_JOL B 2,130,1,BlockProc1,Block1,81,60,,Circle - Round,S,60,60,3730,,,,,,,StudyProc3
D_JOL B 2,130,1,BlockProc1,Block1,82,71,,Machine - Position,U,71,1,4717,,,,,,,StudyProc3
D_JOL B 2,130,1,BlockProc1,Block1,83,21,,Full - Enough,B,21,80,2565,,,,,,,StudyProc3
D_JOL B 2,130,1,BlockProc1,Block1,84,14,,Geology - Rock,F,14,56,2847,,,,,,,StudyProc3
D_JOL B 2,130,1,BlockProc1,Block1,85,5,,Editor - News,F,5,64,5038,,,,,,,StudyProc3
D_JOL B 2,130,1,BlockProc1,Block1,86,,,Grab - Take,,2,,,,,,,,,StudyProc2
D_JOL B 2,130,1,BlockProc1,Block1,87,,,Geese - Goose,,1,,,,,,,,,StudyProc2
D_JOL B 2,130,1,BlockProc1,Block1,88,,,Catcher - Baseball,,4,,,,,,,,,StudyProc2
D_JOL B 2,130,1,BlockProc1,Block1,89,,,Friendliness - Nice,,3,,,,,,,,,StudyProc2
D_JOL B 2,130,1,BlockProc1,Block1,90,,,Trees - Green,,5,,,,,,,,,StudyProc2
D_JOL B 2,130,1,BlockProc1,Block1,91,,,Artery - ?,,69,,,,,KINDEY,7168,,,recallproc1
D_JOL B 2,130,1,BlockProc1,Block1,92,,,Hornet - ?,,6,,,,,STING,2240,,,recallproc1
D_JOL B 2,130,1,BlockProc1,Block1,93,,,Chisel - ?,,4,,,,,HAMMER,2421,,,recallproc1
D_JOL B 2,130,1,BlockProc1,Block1,94,,,Wage - ?,,3,,,,,PAY,4003,,,recallproc1
D_JOL B 2,130,1,BlockProc1,Block1,95,,,Geology - ?,,14,,,,,ROCK,2129,,,recallproc1
D_JOL B 2,130,1,BlockProc1,Block1,96,,,Drink - ?,,22,,,,,SIP,3683,,,recallproc1
D_JOL B 2,130,1,BlockProc1,Block1,97,,,Dump - ?,,44,,,,,TOSS,2743,,,recallproc1
D_JOL B 2,130,1,BlockProc1,Block1,98,,,Machine - ?,,71,,,,,POSITION,4824,,,recallproc1
D_JOL B 2,130,1,BlockProc1,Block1,99,,,Art - ?,,74,,,,,LION,6126,,,recallproc1
D_JOL B 2,130,1,BlockProc1,Block1,100,,,Pusher - ?,,61,,,,,FALL,4135,,,recallproc1
D_JOL B 2,130,1,BlockProc1,Block1,101,,,Hunger - ?,,35,,,,,FAMINE,2408,,,recallproc1
D_JOL B 2,130,1,BlockProc1,Block1,102,,,Happy - ?,,72,,,,,JOYFUL,6879,,,recallproc1
D_JOL B 2,130,1,BlockProc1,Block1,103,,,Trial - ?,,45,,,,,JURY,1754,,,recallproc1
D_JOL B 2,130,1,BlockProc1,Block1,104,,,Lift - ?,,64,,,,,WOMAN,3195,,,recallproc1
D_JOL B 2,130,1,BlockProc1,Block1,105,,,Tuna - ?,,20,,,,,FISH,1562,,,recallproc1
D_JOL B 2,130,1,BlockProc1,Block1,106,,,Hot - ?,,32,,,,,STEMMY,9003,,,recallproc1
D_JOL B 2,130,1,BlockProc1,Block1,107,,,Honey - ?,,58,,,,,BEE,1425,,,recallproc1
D_JOL B 2,130,1,BlockProc1,Block1,108,,,Blow - ?,,50,,,,,WIND,5327,,,recallproc1
D_JOL B 2,130,1,BlockProc1,Block1,109,,,Strong - ?,,75,,,,,MAN,3712,,,recallproc1
D_JOL B 2,130,1,BlockProc1,Block1,110,,,Sleep - ?,,36,,,,,NAP,1883,,,recallproc1
D_JOL B 2,130,1,BlockProc1,Block1,111,,,Number - ?,,42,,,,,LETTER,3879,,,recallproc1
D_JOL B 2,130,1,BlockProc1,Block1,112,,,Location - ?,,43,,,,,SIT,1314,,,recallproc1
D_JOL B 2,130,1,BlockProc1,Block1,113,,,Lettuce - ?,,56,,,,,SALAD,2213,,,recallproc1
D_JOL B 2,130,1,BlockProc1,Block1,114,,,Key - ?,,31,,,,,LATCH,2571,,,recallproc1
D_JOL B 2,130,1,BlockProc1,Block1,115,,,Past - ?,,57,,,,,FUTURE,2235,,,recallproc1
D_JOL B 2,130,1,BlockProc1,Block1,116,,,Swan - ?,,9,,,,,BIRD,2840,,,recallproc1
D_JOL B 2,130,1,BlockProc1,Block1,117,,,Root - ?,,8,,,,,PLANT,1806,,,recallproc1
D_JOL B 2,130,1,BlockProc1,Block1,118,,,Begin - ?,,49,,,,,END,1364,,,recallproc1
D_JOL B 2,130,1,BlockProc1,Block1,119,,,Valley - ?,,77,,,,,RUN,2253,,,recallproc1
D_JOL B 2,130,1,BlockProc1,Block1,120,,,Digestion - ?,,2,,,,,STOMACH,3057,,,recallproc1
D_JOL B 2,130,1,BlockProc1,Block1,121,,,Bridge - ?,,13,,,,,CAR,2966,,,recallproc1
D_JOL B 2,130,1,BlockProc1,Block1,122,,,Great - ?,,30,,,,,HAPPINESS,4774,,,recallproc1
D_JOL B 2,130,1,BlockProc1,Block1,123,,,Choice - ?,,54,,,,,DESTINATION,4686,,,recallproc1
D_JOL B 2,130,1,BlockProc1,Block1,124,,,Soon - ?,,65,,,,,AFTER,2065,,,recallproc1
D_JOL B 2,130,1,BlockProc1,Block1,125,,,Credit - ?,,18,,,,,CARD,1717,,,recallproc1
D_JOL B 2,130,1,BlockProc1,Block1,126,,,Circle - ?,,60,,,,,ROUND,1735,,,recallproc1
D_JOL B 2,130,1,BlockProc1,Block1,127,,,Hygiene - ?,,12,,,,,CLEAN,1776,,,recallproc1
D_JOL B 2,130,1,BlockProc1,Block1,128,,,Paw - ?,,10,,,,,DOG,3808,,,recallproc1
D_JOL B 2,130,1,BlockProc1,Block1,129,,,Death - ?,,67,,,,,COFFIN,4455,,,recallproc1
D_JOL B 2,130,1,BlockProc1,Block1,130,,,Bathroom - ?,,53,,,,,TOLIET,3027,,,recallproc1
D_JOL B 2,130,1,BlockProc1,Block1,131,,,King - ?,,80,,,,,ARTHURS,7361,,,recallproc1
D_JOL B 2,130,1,BlockProc1,Block1,132,,,Due - ?,,41,,,,,ASSIGMNET,3065,,,recallproc1
D_JOL B 2,130,1,BlockProc1,Block1,133,,,Clothes - ?,,38,,,,,SHIRT,3213,,,recallproc1
D_JOL B 2,130,1,BlockProc1,Block1,134,,,Cash - ?,,78,,,,,MACHINE,7196,,,recallproc1
D_JOL B 2,130,1,BlockProc1,Block1,135,,,Sugar - ?,,76,,,,,SWEET,2747,,,recallproc1
D_JOL B 2,130,1,BlockProc1,Block1,136,,,Fix - ?,,70,,,,,HAND,3941,,,recallproc1
D_JOL B 2,130,1,BlockProc1,Block1,137,,,Wine - ?,,52,,,,,CHEESE,1925,,,recallproc1
D_JOL B 2,130,1,BlockProc1,Block1,138,,,Fire - ?,,40,,,,,HYDERNT,3383,,,recallproc1
D_JOL B 2,130,1,BlockProc1,Block1,139,,,Allow - ?,,73,,,,,BEGIN,4495,,,recallproc1
D_JOL B 2,130,1,BlockProc1,Block1,140,,,Law - ?,,29,,,,,ATTONRETY,4818,,,recallproc1
D_JOL B 2,130,1,BlockProc1,Block1,141,,,Plane - ?,,39,,,,,CRASH,5159,,,recallproc1
D_JOL B 2,130,1,BlockProc1,Block1,142,,,Herd - ?,,17,,,,,COWS,1832,,,recallproc1
D_JOL B 2,130,1,BlockProc1,Block1,143,,,Hide - ?,,79,,,,,SEEK,4230,,,recallproc1
D_JOL B 2,130,1,BlockProc1,Block1,144,,,Dark - ?,,23,,,,,NIGHT,1843,,,recallproc1
D_JOL B 2,130,1,BlockProc1,Block1,145,,,Baby - ?,,59,,,,,CHILDREN,12841,,,recallproc1
D_JOL B 2,130,1,BlockProc1,Block1,146,,,Park - ?,,63,,,,,PLAY,3045,,,recallproc1
D_JOL B 2,130,1,BlockProc1,Block1,147,,,Ball - ?,,33,,,,,PARK,4546,,,recallproc1
D_JOL B 2,130,1,BlockProc1,Block1,148,,,Discussion - ?,,16,,,,,TALK,2243,,,recallproc1
D_JOL B 2,130,1,BlockProc1,Block1,149,,,Debate - ?,,68,,,,,WORDS,7616,,,recallproc1
D_JOL B 2,130,1,BlockProc1,Block1,150,,,Bug - ?,,27,,,,,SPRAY,3822,,,recallproc1
D_JOL B 2,130,1,BlockProc1,Block1,151,,,Smell - ?,,37,,,,,STENCH,2108,,,recallproc1
D_JOL B 2,130,1,BlockProc1,Block1,152,,,Work - ?,,34,,,,,JOB,3591,,,recallproc1
D_JOL B 2,130,1,BlockProc1,Block1,153,,,Dietary - ?,,62,,,,,SACKNESS,4758,,,recallproc1
D_JOL B 2,130,1,BlockProc1,Block1,154,,,Take - ?,,24,,,,,OBTAIN,3038,,,recallproc1
D_JOL B 2,130,1,BlockProc1,Block1,155,,,Kidney - ?,,48,,,,,LIVER,1827,,,recallproc1
D_JOL B 2,130,1,BlockProc1,Block1,156,,,Delinquent - ?,,1,,,,,BAD,1514,,,recallproc1
D_JOL B 2,130,1,BlockProc1,Block1,157,,,Pop - ?,,51,,,,,SODA,2100,,,recallproc1
D_JOL B 2,130,1,BlockProc1,Block1,158,,,Editor - ?,,5,,,,,NEWS,1879,,,recallproc1
D_JOL B 2,130,1,BlockProc1,Block1,159,,,Architecture - ?,,46,,,,,BUILD,9611,,,recallproc1
D_JOL B 2,130,1,BlockProc1,Block1,160,,,Grill - ?,,47,,,,,BAR,2353,,,recallproc1
D_JOL B 2,130,1,BlockProc1,Block1,161,,,Orchid - ?,,19,,,,,FLOWER,2329,,,recallproc1
D_JOL B 2,130,1,BlockProc1,Block1,162,,,Full - ?,,21,,,,,SATIFISHED,5459,,,recallproc1
D_JOL B 2,130,1,BlockProc1,Block1,163,,,Discover - ?,,66,,,,,UPON,2984,,,recallproc1
D_JOL B 2,130,1,BlockProc1,Block1,164,,,Sentence - ?,,26,,,,,WORDS,2719,,,recallproc1
D_JOL B 2,130,1,BlockProc1,Block1,165,,,Revolution - ?,,15,,,,,WAR,3297,,,recallproc1
D_JOL B 2,130,1,BlockProc1,Block1,166,,,Math - ?,,28,,,,,ADDITON,5084,,,recallproc1
D_JOL B 2,130,1,BlockProc1,Block1,167,,,Shoe - ?,,55,,,,,LACE,2304,,,recallproc1
D_JOL B 2,130,1,BlockProc1,Block1,168,,,Way - ?,,11,,,,,UP,1882,,,recallproc1
D_JOL B 2,130,1,BlockProc1,Block1,169,,,Bitter - ?,,7,,,,,MAD,2494,,,recallproc1
D_JOL B 2,130,1,BlockProc1,Block1,170,,,Height - ?,,25,,,,,GROWTH,3401,,,recallproc1
D_JOL B 2,134,1,BlockProc2,Block2,1,,,Sheriff - Police,,1,,,,,,,,,StudyProc4
D_JOL B 2,134,1,BlockProc2,Block2,2,,,Essay - Write,,4,,,,,,,,,StudyProc4
D_JOL B 2,134,1,BlockProc2,Block2,3,,,Malt - Chocolate,,5,,,,,,,,,StudyProc4
D_JOL B 2,134,1,BlockProc2,Block2,4,,,Hide - Scare,,2,,,,,,,,,StudyProc4
D_JOL B 2,134,1,BlockProc2,Block2,5,,,Disintegrate - Disappear,,3,,,,,,,,,StudyProc4
D_JOL B 2,134,1,BlockProc2,Block2,6,,37,Money - Banker,B,37,,,100,2473,,,,,StudyProc5
D_JOL B 2,134,1,BlockProc2,Block2,7,,55,Rod - Reel,S,55,,,10,2954,,,,,StudyProc5
D_JOL B 2,134,1,BlockProc2,Block2,8,,35,Fish - Sardine,B,35,,,25,3498,,,,,StudyProc5
D_JOL B 2,134,1,BlockProc2,Block2,9,,39,Sleep - Nap,B,39,,,100,2382,,,,,StudyProc5
D_JOL B 2,134,1,BlockProc2,Block2,10,,47,Gone - Away,S,47,,,93,2374,,,,,StudyProc5
D_JOL B 2,134,1,BlockProc2,Block2,11,,67,Shell - Snake,U,67,,,35,5184,,,,,StudyProc5
D_JOL B 2,134,1,BlockProc2,Block2,12,,9,Cherry - Red,F,9,,,100,2679,,,,,StudyProc5
D_JOL B 2,134,1,BlockProc2,Block2,13,,40,Fight - Brawl,B,40,,,100,3370,,,,,StudyProc5
D_JOL B 2,134,1,BlockProc2,Block2,14,,71,Name - Hate,U,71,,,12,2310,,,,,StudyProc5
D_JOL B 2,134,1,BlockProc2,Block2,15,,17,Shears - Scissors,F,17,,,100,2638,,,,,StudyProc5
D_JOL B 2,134,1,BlockProc2,Block2,16,,69,Keys - Joke,U,69,,,30,2582,,,,,StudyProc5
D_JOL B 2,134,1,BlockProc2,Block2,17,,41,Razor - Shave,S,41,,,90,1909,,,,,StudyProc5
D_JOL B 2,134,1,BlockProc2,Block2,18,,75,Loan - Sign,U,75,,,85,1964,,,,,StudyProc5
D_JOL B 2,134,1,BlockProc2,Block2,19,,32,Glass - Breakable,B,32,,,98,4306,,,,,StudyProc5
D_JOL B 2,134,1,BlockProc2,Block2,20,,48,Water - Drink,S,48,,,69,8744,,,,,StudyProc5
D_JOL B 2,134,1,BlockProc2,Block2,21,,25,Star - Actress,B,25,,,100,5930,,,,,StudyProc5
D_JOL B 2,134,1,BlockProc2,Block2,22,,7,Furry - Dog,F,7,,,67,3820,,,,,StudyProc5
D_JOL B 2,134,1,BlockProc2,Block2,23,,12,Chop - Cut,F,12,,,100,2284,,,,,StudyProc5
D_JOL B 2,134,1,BlockProc2,Block2,24,,3,Cactus - Plant,F,3,,,100,2270,,,,,StudyProc5
D_JOL B 2,134,1,BlockProc2,Block2,25,,13,Mule - Donkey,F,13,,,100,2737,,,,,StudyProc5
D_JOL B 2,134,1,BlockProc2,Block2,26,,56,Flea - Tick,S,56,,,98,1716,,,,,StudyProc5
D_JOL B 2,134,1,BlockProc2,Block2,27,,44,Candle - Wax,S,44,,,100,2354,,,,,StudyProc5
D_JOL B 2,134,1,BlockProc2,Block2,28,,4,Shoelace - Tie,F,4,,,100,2464,,,,,StudyProc5
D_JOL B 2,134,1,BlockProc2,Block2,29,,29,Fruit - Strawberry,B,29,,,100,2582,,,,,StudyProc5
D_JOL B 2,134,1,BlockProc2,Block2,30,,51,Dry - Wet,S,51,,,100,1929,,,,,StudyProc5
D_JOL B 2,134,1,BlockProc2,Block2,31,,50,Alone - Lonely,S,50,,,100,2065,,,,,StudyProc5
D_JOL B 2,134,1,BlockProc2,Block2,32,,24,Bird - Penguin,B,24,,,35,3390,,,,,StudyProc5
D_JOL B 2,134,1,BlockProc2,Block2,33,,38,Honest - Truthful,B,38,,,98,2540,,,,,StudyProc5
D_JOL B 2,134,1,BlockProc2,Block2,34,,60,Sun - Tan,S,60,,,100,2289,,,,,StudyProc5
D_JOL B 2,134,1,BlockProc2,Block2,35,,28,Pop - Balloon,B,28,,,76,2533,,,,,StudyProc5
D_JOL B 2,134,1,BlockProc2,Block2,36,,11,Driver - Car,F,11,,,55,2839,,,,,StudyProc5
D_JOL B 2,134,1,BlockProc2,Block2,37,,61,Justice - Maroon,U,61,,,13,2241,,,,,StudyProc5
D_JOL B 2,134,1,BlockProc2,Block2,38,,46,Element - Carbon,S,46,,,85,4698,,,,,StudyProc5
D_JOL B 2,134,1,BlockProc2,Block2,39,,22,Car - Windshield,B,22,,,75,1986,,,,,StudyProc5
D_JOL B 2,134,1,BlockProc2,Block2,40,,80,Charm - Vehicle,U,80,,,0,8823,,,,,StudyProc5
D_JOL B 2,134,1,BlockProc2,Block2,41,,78,Mirror - Children,U,78,,,25,7051,,,,,StudyProc5
D_JOL B 2,134,1,BlockProc2,Block2,42,,26,Thread - Thimble,B,26,,,45,5168,,,,,StudyProc5
D_JOL B 2,134,1,BlockProc2,Block2,43,,72,Fuzzy - Bang,U,72,,,89,3122,,,,,StudyProc5
D_JOL B 2,134,1,BlockProc2,Block2,44,,63,Give - Steak,U,63,,,78,5130,,,,,StudyProc5
D_JOL B 2,134,1,BlockProc2,Block2,45,,49,Earth - Ground,S,49,,,100,2189,,,,,StudyProc5
D_JOL B 2,134,1,BlockProc2,Block2,46,,70,Cake - Clothes,U,70,,,89,1559,,,,,StudyProc5
D_JOL B 2,134,1,BlockProc2,Block2,47,,64,Maze - Election,U,64,,,35,7259,,,,,StudyProc5
D_JOL B 2,134,1,BlockProc2,Block2,48,,79,Main - Scar,U,79,,,100,2987,,,,,StudyProc5
D_JOL B 2,134,1,BlockProc2,Block2,49,,34,Plane - Aircraft,B,34,,,100,3785,,,,,StudyProc5
D_JOL B 2,134,1,BlockProc2,Block2,50,,73,Moat - Clear,U,73,,,10,3532,,,,,StudyProc5
D_JOL B 2,134,1,BlockProc2,Block2,51,,2,Clue - Game,F,2,,,15,2971,,,,,StudyProc5
D_JOL B 2,134,1,BlockProc2,Block2,52,,23,Bad - Villain,B,23,,,67,2838,,,,,StudyProc5
D_JOL B 2,134,1,BlockProc2,Block2,53,,65,Meat - Obtain,U,65,,,75,4129,,,,,StudyProc5
D_JOL B 2,134,1,BlockProc2,Block2,54,,53,Truth - Lie,S,53,,,100,3585,,,,,StudyProc5
D_JOL B 2,134,1,BlockProc2,Block2,55,,33,Dead - Coffin,B,33,,,100,2591,,,,,StudyProc5
D_JOL B 2,134,1,BlockProc2,Block2,56,,54,Phone - Communication,S,54,,,100,2383,,,,,StudyProc5
D_JOL B 2,134,1,BlockProc2,Block2,57,,68,Listen - Fiction,U,68,,,12,1678,,,,,StudyProc5
D_JOL B 2,134,1,BlockProc2,Block2,58,,59,Tantrum - Temper,S,59,,,85,3302,,,,,StudyProc5
D_JOL B 2,134,1,BlockProc2,Block2,59,,74,Lease - Toil,U,74,,,20,2616,,,,,StudyProc5
D_JOL B 2,134,1,BlockProc2,Block2,60,,14,Document - Paper,F,14,,,98,3016,,,,,StudyProc5
D_JOL B 2,134,1,BlockProc2,Block2,61,,76,Both - Ounce,U,76,,,56,2945,,,,,StudyProc5
D_JOL B 2,134,1,BlockProc2,Block2,62,,45,Wrist - Bracelet,S,45,,,77,2733,,,,,StudyProc5
D_JOL B 2,134,1,BlockProc2,Block2,63,,36,Baseball - League,B,36,,,89,3707,,,,,StudyProc5
D_JOL B 2,134,1,BlockProc2,Block2,64,,20,Affection - Love,F,20,,,94,5218,,,,,StudyProc5
D_JOL B 2,134,1,BlockProc2,Block2,65,,18,Feud - Fight,F,18,,,100,2152,,,,,StudyProc5
D_JOL B 2,134,1,BlockProc2,Block2,66,,15,Incense - Smell,F,15,,,100,1963,,,,,StudyProc5
D_JOL B 2,134,1,BlockProc2,Block2,67,,10,Scalp - Head,F,10,,,100,2211,,,,,StudyProc5
D_JOL B 2,134,1,BlockProc2,Block2,68,,30,Best - Favorite,B,30,,,100,2119,,,,,StudyProc5
D_JOL B 2,134,1,BlockProc2,Block2,69,,31,Cat - Panther,B,31,,,50,2001,,,,,StudyProc5
D_JOL B 2,134,1,BlockProc2,Block2,70,,1,Extension - Long,F,1,,,100,2108,,,,,StudyProc5
D_JOL B 2,134,1,BlockProc2,Block2,71,,66,Crackle - Able,U,66,,,55,2189,,,,,StudyProc5
D_JOL B 2,134,1,BlockProc2,Block2,72,,8,Litter - Trash,F,8,,,88,2019,,,,,StudyProc5
D_JOL B 2,134,1,BlockProc2,Block2,73,,27,Even - Revenge,B,27,,,100,2273,,,,,StudyProc5
D_JOL B 2,134,1,BlockProc2,Block2,74,,21,Turn - Flip,B,21,,,100,2056,,,,,StudyProc5
D_JOL B 2,134,1,BlockProc2,Block2,75,,19,Chill - Cold,F,19,,,78,4515,,,,,StudyProc5
D_JOL B 2,134,1,BlockProc2,Block2,76,,62,Stretch - Cloth,U,62,,,67,3823,,,,,StudyProc5
D_JOL B 2,134,1,BlockProc2,Block2,77,,42,Rights - Equal,S,42,,,100,2418,,,,,StudyProc5
D_JOL B 2,134,1,BlockProc2,Block2,78,,16,Dine - Eat,F,16,,,100,2868,,,,,StudyProc5
D_JOL B 2,134,1,BlockProc2,Block2,79,,6,Adjourn - End,F,6,,,100,2246,,,,,StudyProc5
D_JOL B 2,134,1,BlockProc2,Block2,80,,43,Mason - Jar,S,43,,,56,3016,,,,,StudyProc5
D_JOL B 2,134,1,BlockProc2,Block2,81,,52,Safety - Seatbelt,S,52,,,67,2756,,,,,StudyProc5
D_JOL B 2,134,1,BlockProc2,Block2,82,,77,Temperature - Morning,U,77,,,56,3543,,,,,StudyProc5
D_JOL B 2,134,1,BlockProc2,Block2,83,,58,Own - Have,S,58,,,100,1828,,,,,StudyProc5
D_JOL B 2,134,1,BlockProc2,Block2,84,,57,Loud - Noise,S,57,,,100,2072,,,,,StudyProc5
D_JOL B 2,134,1,BlockProc2,Block2,85,,5,Detective - Mystery,F,5,,,78,4219,,,,,StudyProc5
D_JOL B 2,134,1,BlockProc2,Block2,86,,,Magician - Magic,,4,,,,,,,,,StudyProc6
D_JOL B 2,134,1,BlockProc2,Block2,87,,,Contest - Competition,,5,,,,,,,,,StudyProc6
D_JOL B 2,134,1,BlockProc2,Block2,88,,,Deaf - Hear,,3,,,,,,,,,StudyProc6
D_JOL B 2,134,1,BlockProc2,Block2,89,,,Mind - Matter,,2,,,,,,,,,StudyProc6
D_JOL B 2,134,1,BlockProc2,Block2,90,,,Deciet - Cheat,,1,,,,,,,,,StudyProc6
D_JOL B 2,134,1,BlockProc2,Block2,91,,,Loud - ?,,57,,,,,,,noise,4562,recallproc2
D_JOL B 2,134,1,BlockProc2,Block2,92,,,Cat - ?,,31,,,,,,,panther,6546,recallproc2
D_JOL B 2,134,1,BlockProc2,Block2,93,,,Thread - ?,,26,,,,,,,thimble,5907,recallproc2
D_JOL B 2,134,1,BlockProc2,Block2,94,,,Even - ?,,27,,,,,,,odd,3037,recallproc2
D_JOL B 2,134,1,BlockProc2,Block2,95,,,Car - ?,,22,,,,,,,winshield,5954,recallproc2
D_JOL B 2,134,1,BlockProc2,Block2,96,,,Shell - ?,,68,,,,,,,snake,3450,recallproc2
D_JOL B 2,134,1,BlockProc2,Block2,97,,,Fuzzy - ?,,73,,,,,,,dog,6216,recallproc2
D_JOL B 2,134,1,BlockProc2,Block2,98,,,Flea - ?,,56,,,,,,,tick,2638,recallproc2
D_JOL B 2,134,1,BlockProc2,Block2,99,,,Document - ?,,14,,,,,,,paper,3243,recallproc2
D_JOL B 2,134,1,BlockProc2,Block2,100,,,Mirror - ?,,79,,,,,,,children,4616,recallproc2
D_JOL B 2,134,1,BlockProc2,Block2,101,,,Mule - ?,,13,,,,,,,donkey,3159,recallproc2
D_JOL B 2,134,1,BlockProc2,Block2,102,,,Element - ?,,46,,,,,,,carbon,7079,recallproc2
D_JOL B 2,134,1,BlockProc2,Block2,103,,,Dine - ?,,16,,,,,,,eat,3034,recallproc2
D_JOL B 2,134,1,BlockProc2,Block2,104,,,Shoelace - ?,,4,,,,,,,tie,3632,recallproc2
D_JOL B 2,134,1,BlockProc2,Block2,105,,,Own - ?,,58,,,,,,,have,4669,recallproc2
D_JOL B 2,134,1,BlockProc2,Block2,106,,,Rod - ?,,55,,,,,,,stick,5849,recallproc2
D_JOL B 2,134,1,BlockProc2,Block2,107,,,Vehicle - ?,,65,,,,,,,car,2982,recallproc2
D_JOL B 2,134,1,BlockProc2,Block2,108,,,Meat - ?,,66,,,,,,,steak,11966,recallproc2
D_JOL B 2,134,1,BlockProc2,Block2,109,,,Fruit - ?,,29,,,,,,,strawberry,6150,recallproc2
D_JOL B 2,134,1,BlockProc2,Block2,110,,,Fish - ?,,35,,,,,,,plate,16815,recallproc2
D_JOL B 2,134,1,BlockProc2,Block2,111,,,Scalp - ?,,10,,,,,,,head,2484,recallproc2
D_JOL B 2,134,1,BlockProc2,Block2,112,,,Driver - ?,,11,,,,,,,car,3688,recallproc2
D_JOL B 2,134,1,BlockProc2,Block2,113,,,Crackle - ?,,67,,,,,,,crack,8355,recallproc2
D_JOL B 2,134,1,BlockProc2,Block2,114,,,Baseball - ?,,36,,,,,,,evolution,67474,recallproc2
D_JOL B 2,134,1,BlockProc2,Block2,115,,,Sun - ?,,60,,,,,,,keys,6082,recallproc2
D_JOL B 2,134,1,BlockProc2,Block2,116,,,Listen - ?,,69,,,,,,,hear,3373,recallproc2
D_JOL B 2,134,1,BlockProc2,Block2,117,,,Phone - ?,,54,,,,,,,call,5597,recallproc2
D_JOL B 2,134,1,BlockProc2,Block2,118,,,Temperature - ?,,78,,,,,,,morning,3692,recallproc2
D_JOL B 2,134,1,BlockProc2,Block2,119,,,Detective - ?,,5,,,,,,,mystery,5199,recallproc2
D_JOL B 2,134,1,BlockProc2,Block2,120,,,Furry - ?,,7,,,,,,,dog,5206,recallproc2
D_JOL B 2,134,1,BlockProc2,Block2,121,,,Candle - ?,,44,,,,,,,wax,2876,recallproc2
D_JOL B 2,134,1,BlockProc2,Block2,122,,,Stretch - ?,,62,,,,,,,stripe,10384,recallproc2
D_JOL B 2,134,1,BlockProc2,Block2,123,,,Safety - ?,,52,,,,,,,seatbelt,5151,recallproc2
D_JOL B 2,134,1,BlockProc2,Block2,124,,,Water,,48,,,,,,,drink,3799,recallproc2
D_JOL B 2,134,1,BlockProc2,Block2,125,,,Mason - ?,,43,,,,,,,ke,12950,recallproc2
D_JOL B 2,134,1,BlockProc2,Block2,126,,,Incense - ?,,15,,,,,,,scent,5487,recallproc2
D_JOL B 2,134,1,BlockProc2,Block2,127,,,Loan - ?,,76,,,,,,,banker,9322,recallproc2
D_JOL B 2,134,1,BlockProc2,Block2,128,,,Glass - ?,,32,,,,,,,break,3771,recallproc2
D_JOL B 2,134,1,BlockProc2,Block2,129,,,Lease - ?,,75,,,,,,,sign,4595,recallproc2
D_JOL B 2,134,1,BlockProc2,Block2,130,,,Cherry - ?,,9,,,,,,,red,3370,recallproc2
D_JOL B 2,134,1,BlockProc2,Block2,131,,,Keys - ?,,70,,,,,,,lock,6674,recallproc2
D_JOL B 2,134,1,BlockProc2,Block2,132,,,Shears - ?,,17,,,,,,,scissors,4269,recallproc2
D_JOL B 2,134,1,BlockProc2,Block2,133,,,Sleep - ?,,39,,,,,,,nap,3561,recallproc2
D_JOL B 2,134,1,BlockProc2,Block2,134,,,Litter - ?,,8,,,,,,,trash,2905,recallproc2
D_JOL B 2,134,1,BlockProc2,Block2,135,,,Razor - ?,,41,,,,,,,shave,4460,recallproc2
D_JOL B 2,134,1,BlockProc2,Block2,136,,,Pop - ?,,28,,,,,,,corn,9152,recallproc2
D_JOL B 2,134,1,BlockProc2,Block2,137,,,Name - ?,,72,,,,,,,hate,3488,recallproc2
D_JOL B 2,134,1,BlockProc2,Block2,138,,,Dead - ?,,33,,,,,,,coffin,4627,recallproc2
D_JOL B 2,134,1,BlockProc2,Block2,139,,,Bad - ?,,23,,,,,,,hard,11673,recallproc2
D_JOL B 2,134,1,BlockProc2,Block2,140,,,Dry - ?,,51,,,,,,,wet,2540,recallproc2
D_JOL B 2,134,1,BlockProc2,Block2,141,,,Justice - ?,,61,,,,,,,peace,5397,recallproc2
D_JOL B 2,134,1,BlockProc2,Block2,142,,,Main - ?,,80,,,,,,,stream,8884,recallproc2
D_JOL B 2,134,1,BlockProc2,Block2,143,,,Extension - ?,,1,,,,,,,long,4503,recallproc2
D_JOL B 2,134,1,BlockProc2,Block2,144,,,Earth - ?,,49,,,,,,,ground,4049,recallproc2
D_JOL B 2,134,1,BlockProc2,Block2,145,,,Feud - ?,,18,,,,,,,fight,2679,recallproc2
D_JOL B 2,134,1,BlockProc2,Block2,146,,,Give - ?,,63,,,,,,,have,4042,recallproc2
D_JOL B 2,134,1,BlockProc2,Block2,147,,,Best - ?,,30,,,,,,,favorite,4775,recallproc2
D_JOL B 2,134,1,BlockProc2,Block2,148,,,Moat - ?,,74,,,,,,,chocolate,5999,recallproc2
D_JOL B 2,134,1,BlockProc2,Block2,149,,,Rights - ?,,42,,,,,,,justice,3814,recallproc2
D_JOL B 2,134,1,BlockProc2,Block2,150,,,Gone - ?,,47,,,,,,,lost,3692,recallproc2
D_JOL B 2,134,1,BlockProc2,Block2,151,,,Turn - ?,,21,,,,,,,flip,3880,recallproc2
D_JOL B 2,134,1,BlockProc2,Block2,152,,,Truth - ?,,53,,,,,,,honest,4043,recallproc2
D_JOL B 2,134,1,BlockProc2,Block2,153,,,Wrist - ?,,45,,,,,,,bracelet,5768,recallproc2
D_JOL B 2,134,1,BlockProc2,Block2,154,,,Honest - ?,,38,,,,,,,truth,3144,recallproc2
D_JOL B 2,134,1,BlockProc2,Block2,155,,,Plane - ?,,34,,,,,,,aircraft,4297,recallproc2
D_JOL B 2,134,1,BlockProc2,Block2,156,,,Chill - ?,,19,,,,,,,cold,2644,recallproc2
D_JOL B 2,134,1,BlockProc2,Block2,157,,,Money - ?,,37,,,,,,,banker,3361,recallproc2
D_JOL B 2,134,1,BlockProc2,Block2,158,,,Maze - ?,,64,,,,,,,runner,6554,recallproc2
D_JOL B 2,134,1,BlockProc2,Block2,159,,,Fight - ?,,40,,,,,,,argue,5778,recallproc2
D_JOL B 2,134,1,BlockProc2,Block2,160,,,Cake - ?,,71,,,,,,,clothes,4506,recallproc2
D_JOL B 2,134,1,BlockProc2,Block2,161,,,Alone - ?,,50,,,,,,,lonely,3364,recallproc2
D_JOL B 2,134,1,BlockProc2,Block2,162,,,Affection - ?,,20,,,,,,,love,2476,recallproc2
D_JOL B 2,134,1,BlockProc2,Block2,163,,,Both - ?,,77,,,,,,,ounce,7104,recallproc2
D_JOL B 2,134,1,BlockProc2,Block2,164,,,Bird - ?,,24,,,,,,,brain,14354,recallproc2
D_JOL B 2,134,1,BlockProc2,Block2,165,,,Adjourn - ?,,6,,,,,,,end,2938,recallproc2
D_JOL B 2,134,1,BlockProc2,Block2,166,,,Chop - ?,,12,,,,,,,cut,2571,recallproc2
D_JOL B 2,134,1,BlockProc2,Block2,167,,,Tantrum - ?,,59,,,,,,,temper,3683,recallproc2
D_JOL B 2,134,1,BlockProc2,Block2,168,,,Cactus - ?,,3,,,,,,,plant,4359,recallproc2
D_JOL B 2,134,1,BlockProc2,Block2,169,,,Star - ?,,25,,,,,,,sky,6431,recallproc2
D_JOL B 2,134,1,BlockProc2,Block2,170,,,Clue - ?,,2,,,,,,,hint,4101,recallproc2
D_JOL B 2,134,1,BlockProc1,Block1,1,,,Member - Group,,5,,,,,,,,,StudyProc1
D_JOL B 2,134,1,BlockProc1,Block1,2,,,Haircut-Scissors,,1,,,,,,,,,StudyProc1
