ExperimentName,Subject,Session,Procedure[Block],Running[Block],Trial,Block1ITEMS,Block2ITEMS,cue_target,Direction,ListNum,pword3.RESP,pword3.RT,pword5.RESP,pword5.RT,Rword1.RESP,Rword1.RT,Rword2.RESP,Rword2.RT,Group,Procedure[Trial]
D_JOL A 2,117,1,BlockProc1,Block1,1,,,Shrimp - Fish,,4,,,,,,,,,1,StudyProc1
D_JOL A 2,117,1,BlockProc1,Block1,2,,,Haircut-Scissors,,1,,,,,,,,,1,StudyProc1
D_JOL A 2,117,1,BlockProc1,Block1,3,,,Curtain - Drapes,,2,,,,,,,,,1,StudyProc1
D_JOL A 2,117,1,BlockProc1,Block1,4,,,Snow - Ice,,3,,,,,,,,,1,StudyProc1
D_JOL A 2,117,1,BlockProc1,Block1,5,,,Member - Group,,5,,,,,,,,,1,StudyProc1
D_JOL A 2,117,1,BlockProc1,Block1,6,36,,Sleep - Drowsy,B,36,100,4373,,,,,,,1,StudyProc3
D_JOL A 2,117,1,BlockProc1,Block1,7,10,,Paw - Dog,F,10,60,12120,,,,,,,1,StudyProc3
D_JOL A 2,117,1,BlockProc1,Block1,8,1,,Delinquent - Bad,F,1,100,2247,,,,,,,1,StudyProc3
D_JOL A 2,117,1,BlockProc1,Block1,9,72,,Happy - Car,U,72,100,4229,,,,,,,1,StudyProc3
D_JOL A 2,117,1,BlockProc1,Block1,10,39,,Plane - Pilot,B,39,100,2206,,,,,,,1,StudyProc3
D_JOL A 2,117,1,BlockProc1,Block1,11,70,,Fix - Hand,U,70,75,3764,,,,,,,1,StudyProc3
D_JOL A 2,117,1,BlockProc1,Block1,12,45,,Trial - Jury,S,45,100,1712,,,,,,,1,StudyProc3
D_JOL A 2,117,1,BlockProc1,Block1,13,50,,Blow - Wind,S,50,100,1889,,,,,,,1,StudyProc3
D_JOL A 2,117,1,BlockProc1,Block1,14,19,,Orchid - Flower,F,19,100,2170,,,,,,,1,StudyProc3
D_JOL A 2,117,1,BlockProc1,Block1,15,28,,Math - Division,B,28,65,8647,,,,,,,1,StudyProc3
D_JOL A 2,117,1,BlockProc1,Block1,16,63,,Park - Hungry,U,63,100,1741,,,,,,,1,StudyProc3
D_JOL A 2,117,1,BlockProc1,Block1,17,59,,Baby - Child,S,59,90,6369,,,,,,,1,StudyProc3
D_JOL A 2,117,1,BlockProc1,Block1,18,9,,Swan - Bird,F,9,100,3246,,,,,,,1,StudyProc3
D_JOL A 2,117,1,BlockProc1,Block1,19,57,,Lettuce - Salad,S,56,100,1714,,,,,,,1,StudyProc3
D_JOL A 2,117,1,BlockProc1,Block1,20,47,,Grill -Bar,S,47,100,2358,,,,,,,1,StudyProc3
D_JOL A 2,117,1,BlockProc1,Block1,21,48,,Kidney - Liver,S,48,100,2098,,,,,,,1,StudyProc3
D_JOL A 2,117,1,BlockProc1,Block1,22,35,,Hunger - Famine,B,35,70,7111,,,,,,,1,StudyProc3
D_JOL A 2,117,1,BlockProc1,Block1,23,37,,Smell - Stench,B,37,100,2371,,,,,,,1,StudyProc3
D_JOL A 2,117,1,BlockProc1,Block1,24,6,,Hornet - Sting,F,6,100,3414,,,,,,,1,StudyProc3
D_JOL A 2,117,1,BlockProc1,Block1,25,71,,Machine - Position,U,71,100,9416,,,,,,,1,StudyProc3
D_JOL A 2,117,1,BlockProc1,Block1,26,40,,Fire - Blaze,B,40,100,2124,,,,,,,1,StudyProc3
D_JOL A 2,117,1,BlockProc1,Block1,27,69,,Artery - Bronze,U,69,100,3780,,,,,,,1,StudyProc3
D_JOL A 2,117,1,BlockProc1,Block1,28,33,,Ball - Racket,B,33,57,6876,,,,,,,1,StudyProc3
D_JOL A 2,117,1,BlockProc1,Block1,29,77,,Valley - Add,U,77,100,1696,,,,,,,1,StudyProc3
D_JOL A 2,117,1,BlockProc1,Block1,30,73,,Allow - Tuck,U,73,70,7619,,,,,,,1,StudyProc3
D_JOL A 2,117,1,BlockProc1,Block1,31,56,,Past - Future,S,57,100,2207,,,,,,,1,StudyProc3
D_JOL A 2,117,1,BlockProc1,Block1,32,67,,Death - Business,U,67,60,7920,,,,,,,1,StudyProc3
D_JOL A 2,117,1,BlockProc1,Block1,33,23,,Dark - Cave,B,23,100,2912,,,,,,,1,StudyProc3
D_JOL A 2,117,1,BlockProc1,Block1,34,29,,Law - Attorney,B,29,100,1956,,,,,,,1,StudyProc3
D_JOL A 2,117,1,BlockProc1,Block1,35,42,,Number - Amount,S,42,80,4667,,,,,,,1,StudyProc3
D_JOL A 2,117,1,BlockProc1,Block1,36,31,,Key - Latch,B,31,100,1852,,,,,,,1,StudyProc3
D_JOL A 2,117,1,BlockProc1,Block1,37,25,,Height - Growth,B,25,100,2093,,,,,,,1,StudyProc3
D_JOL A 2,117,1,BlockProc1,Block1,38,21,,Full - Enough,B,21,100,2009,,,,,,,1,StudyProc3
D_JOL A 2,117,1,BlockProc1,Block1,39,68,,Debate - Sight,U,68,55,5401,,,,,,,1,StudyProc3
D_JOL A 2,117,1,BlockProc1,Block1,40,49,,Begin - End,S,49,100,2456,,,,,,,1,StudyProc3
D_JOL A 2,117,1,BlockProc1,Block1,41,27,,Bug - Wasp,B,27,100,2366,,,,,,,1,StudyProc3
D_JOL A 2,117,1,BlockProc1,Block1,42,64,,Lift - Woman,U,64,100,1969,,,,,,,1,StudyProc3
D_JOL A 2,117,1,BlockProc1,Block1,43,30,,Great - Fantastic,B,30,100,2675,,,,,,,1,StudyProc3
D_JOL A 2,117,1,BlockProc1,Block1,44,24,,Take - Seize,B,24,100,1872,,,,,,,1,StudyProc3
D_JOL A 2,117,1,BlockProc1,Block1,45,61,,Pusher - Clutter,U,61,100,1908,,,,,,,1,StudyProc3
D_JOL A 2,117,1,BlockProc1,Block1,46,62,,Dietary - Sacking,U,62,75,7787,,,,,,,1,StudyProc3
D_JOL A 2,117,1,BlockProc1,Block1,47,38,,Clothes - Attire,B,38,100,1849,,,,,,,1,StudyProc3
D_JOL A 2,117,1,BlockProc1,Block1,48,13,,Bridge - Water,F,13,100,2565,,,,,,,1,StudyProc3
D_JOL A 2,117,1,BlockProc1,Block1,49,4,,Chisel - Hammer,F,4,100,4013,,,,,,,1,StudyProc3
D_JOL A 2,117,1,BlockProc1,Block1,50,7,,Bitter - Cold,F,7,90,5163,,,,,,,1,StudyProc3
D_JOL A 2,117,1,BlockProc1,Block1,51,44,,Dump - Waste,S,44,100,1834,,,,,,,1,StudyProc3
D_JOL A 2,117,1,BlockProc1,Block1,52,80,,King - Vase,U,80,85,5025,,,,,,,1,StudyProc3
D_JOL A 2,117,1,BlockProc1,Block1,53,43,,Location - Site,S,43,100,1924,,,,,,,1,StudyProc3
D_JOL A 2,117,1,BlockProc1,Block1,54,26,,Sentence - Word,B,26,70,5404,,,,,,,1,StudyProc3
D_JOL A 2,117,1,BlockProc1,Block1,55,78,,Cash - Would,U,78,100,1943,,,,,,,1,StudyProc3
D_JOL A 2,117,1,BlockProc1,Block1,56,34,,Work - Chore,B,34,70,5825,,,,,,,1,StudyProc3
D_JOL A 2,117,1,BlockProc1,Block1,57,12,,Hygiene - Clean,F,12,100,3112,,,,,,,1,StudyProc3
D_JOL A 2,117,1,BlockProc1,Block1,58,5,,Editor - News,F,5,95,3441,,,,,,,1,StudyProc3
D_JOL A 2,117,1,BlockProc1,Block1,59,75,,Strong - Accident,U,75,100,1663,,,,,,,1,StudyProc3
D_JOL A 2,117,1,BlockProc1,Block1,60,60,,Circle - Round,S,60,95,4259,,,,,,,1,StudyProc3
D_JOL A 2,117,1,BlockProc1,Block1,61,14,,Geology - Rock,F,14,100,1979,,,,,,,1,StudyProc3
D_JOL A 2,117,1,BlockProc1,Block1,62,76,,Sugar - Riddle,U,76,100,1999,,,,,,,1,StudyProc3
D_JOL A 2,117,1,BlockProc1,Block1,63,32,,Hot - Chili,B,32,100,2275,,,,,,,1,StudyProc3
D_JOL A 2,117,1,BlockProc1,Block1,64,55,,Shoe - Foot,S,55,100,2806,,,,,,,1,StudyProc3
D_JOL A 2,117,1,BlockProc1,Block1,65,46,,Architecture - Design,S,46,100,3168,,,,,,,1,StudyProc3
D_JOL A 2,117,1,BlockProc1,Block1,66,8,,Root - Plant,F,8,100,1501,,,,,,,1,StudyProc3
D_JOL A 2,117,1,BlockProc1,Block1,67,3,,Wage - Money,F,3,100,1932,,,,,,,1,StudyProc3
D_JOL A 2,117,1,BlockProc1,Block1,68,74,,Art - Lion,U,74,90,2635,,,,,,,1,StudyProc3
D_JOL A 2,117,1,BlockProc1,Block1,69,54,,Choice - Decision,S,54,100,1841,,,,,,,1,StudyProc3
D_JOL A 2,117,1,BlockProc1,Block1,70,20,,Tuna -  Fish,F,20,100,1629,,,,,,,1,StudyProc3
D_JOL A 2,117,1,BlockProc1,Block1,71,22,,Drink - Sip,B,22,95,2824,,,,,,,1,StudyProc3
D_JOL A 2,117,1,BlockProc1,Block1,72,41,,Due - Assignment,S,41,100,1745,,,,,,,1,StudyProc3
D_JOL A 2,117,1,BlockProc1,Block1,73,16,,Discussion - Talk,F,16,80,3988,,,,,,,1,StudyProc3
D_JOL A 2,117,1,BlockProc1,Block1,74,17,,Herd - Cow,F,17,100,3079,,,,,,,1,StudyProc3
D_JOL A 2,117,1,BlockProc1,Block1,75,2,,Digestion - Stomach,F,2,100,3291,,,,,,,1,StudyProc3
D_JOL A 2,117,1,BlockProc1,Block1,76,11,,Way - Out,F,11,100,1592,,,,,,,1,StudyProc3
D_JOL A 2,117,1,BlockProc1,Block1,77,51,,Pop - Soda,S,51,100,1460,,,,,,,1,StudyProc3
D_JOL A 2,117,1,BlockProc1,Block1,78,58,,Honey - Bee,S,58,100,3324,,,,,,,1,StudyProc3
D_JOL A 2,117,1,BlockProc1,Block1,79,15,,Revolution - War,F,15,100,1576,,,,,,,1,StudyProc3
D_JOL A 2,117,1,BlockProc1,Block1,80,53,,Bathroom - Toilet,S,53,100,1566,,,,,,,1,StudyProc3
D_JOL A 2,117,1,BlockProc1,Block1,81,52,,Wine - Cheese,S,52,100,1477,,,,,,,1,StudyProc3
D_JOL A 2,117,1,BlockProc1,Block1,82,18,,Credit - Card,F,18,100,1621,,,,,,,1,StudyProc3
D_JOL A 2,117,1,BlockProc1,Block1,83,66,,Discover - Floor,U,66,70,2821,,,,,,,1,StudyProc3
D_JOL A 2,117,1,BlockProc1,Block1,84,79,,Hide - Sick,U,79,100,1537,,,,,,,1,StudyProc3
D_JOL A 2,117,1,BlockProc1,Block1,85,65,,Soon - Belt,U,65,100,1349,,,,,,,1,StudyProc3
D_JOL A 2,117,1,BlockProc1,Block1,86,,,Catcher - Baseball,,4,,,,,,,,,1,StudyProc2
D_JOL A 2,117,1,BlockProc1,Block1,87,,,Grab - Take,,2,,,,,,,,,1,StudyProc2
D_JOL A 2,117,1,BlockProc1,Block1,88,,,Friendliness - Nice,,3,,,,,,,,,1,StudyProc2
D_JOL A 2,117,1,BlockProc1,Block1,89,,,Geese - Goose,,1,,,,,,,,,1,StudyProc2
D_JOL A 2,117,1,BlockProc1,Block1,90,,,Trees - Green,,5,,,,,,,,,1,StudyProc2
D_JOL A 2,117,1,BlockProc1,Block1,91,,,Orchid - ?,,19,,,,,flower,5439,,,1,recallproc1
D_JOL A 2,117,1,BlockProc1,Block1,92,,,Cash - ?,,78,,,,,green,19196,,,1,recallproc1
D_JOL A 2,117,1,BlockProc1,Block1,93,,,Number - ?,,42,,,,,count,6235,,,1,recallproc1
D_JOL A 2,117,1,BlockProc1,Block1,94,,,Shoe - ?,,55,,,,,foot,6343,,,1,recallproc1
D_JOL A 2,117,1,BlockProc1,Block1,95,,,Valley - ?,,77,,,,,mountain,15872,,,1,recallproc1
D_JOL A 2,117,1,BlockProc1,Block1,96,,,Circle - ?,,60,,,,,round,3859,,,1,recallproc1
D_JOL A 2,117,1,BlockProc1,Block1,97,,,Dark - ?,,23,,,,,cave,5312,,,1,recallproc1
D_JOL A 2,117,1,BlockProc1,Block1,98,,,Math - ?,,28,,,,,count,9522,,,1,recallproc1
D_JOL A 2,117,1,BlockProc1,Block1,99,,,Pop - ?,,51,,,,,soda,2427,,,1,recallproc1
D_JOL A 2,117,1,BlockProc1,Block1,100,,,Grill - ?,,47,,,,,cook,6849,,,1,recallproc1
D_JOL A 2,117,1,BlockProc1,Block1,101,,,Kidney - ?,,48,,,,,liver,2990,,,1,recallproc1
D_JOL A 2,117,1,BlockProc1,Block1,102,,,Swan - ?,,9,,,,,bird,3389,,,1,recallproc1
D_JOL A 2,117,1,BlockProc1,Block1,103,,,Drink - ?,,22,,,,,glass,21532,,,1,recallproc1
D_JOL A 2,117,1,BlockProc1,Block1,104,,,Credit - ?,,18,,,,,card,3125,,,1,recallproc1
D_JOL A 2,117,1,BlockProc1,Block1,105,,,Wine - ?,,52,,,,,cheese,4135,,,1,recallproc1
D_JOL A 2,117,1,BlockProc1,Block1,106,,,Art - ?,,74,,,,,paint,14936,,,1,recallproc1
D_JOL A 2,117,1,BlockProc1,Block1,107,,,Location - ?,,43,,,,,position,6080,,,1,recallproc1
D_JOL A 2,117,1,BlockProc1,Block1,108,,,Discover - ?,,66,,,,,look,29052,,,1,recallproc1
D_JOL A 2,117,1,BlockProc1,Block1,109,,,Debate - ?,,68,,,,,find,25871,,,1,recallproc1
D_JOL A 2,117,1,BlockProc1,Block1,110,,,Ball - ?,,33,,,,,catcher,11625,,,1,recallproc1
D_JOL A 2,117,1,BlockProc1,Block1,111,,,Soon - ?,,65,,,,,find,5463,,,1,recallproc1
D_JOL A 2,117,1,BlockProc1,Block1,112,,,Happy - ?,,72,,,,,sad,4315,,,1,recallproc1
D_JOL A 2,117,1,BlockProc1,Block1,113,,,Paw - ?,,10,,,,,dog,12533,,,1,recallproc1
D_JOL A 2,117,1,BlockProc1,Block1,114,,,Hunger - ?,,35,,,,,thirst,34262,,,1,recallproc1
D_JOL A 2,117,1,BlockProc1,Block1,115,,,Pusher - ?,,61,,,,,grabber,29537,,,1,recallproc1
D_JOL A 2,117,1,BlockProc1,Block1,116,,,Herd - ?,,17,,,,,cow,8856,,,1,recallproc1
D_JOL A 2,117,1,BlockProc1,Block1,117,,,Geology - ?,,14,,,,,location,5252,,,1,recallproc1
D_JOL A 2,117,1,BlockProc1,Block1,118,,,Bug - ?,,27,,,,,butterfly,26729,,,1,recallproc1
D_JOL A 2,117,1,BlockProc1,Block1,119,,,Honey - ?,,58,,,,,bee,1681,,,1,recallproc1
D_JOL A 2,117,1,BlockProc1,Block1,120,,,Key - ?,,31,,,,,latch,5773,,,1,recallproc1
D_JOL A 2,117,1,BlockProc1,Block1,121,,,King - ?,,80,,,,,position,6540,,,1,recallproc1
D_JOL A 2,117,1,BlockProc1,Block1,122,,,Smell - ?,,37,,,,,tree,28701,,,1,recallproc1
D_JOL A 2,117,1,BlockProc1,Block1,123,,,Machine - ?,,71,,,,,mechanic,38031,,,1,recallproc1
D_JOL A 2,117,1,BlockProc1,Block1,124,,,Trial - ?,,45,,,,,jury,4178,,,1,recallproc1
D_JOL A 2,117,1,BlockProc1,Block1,125,,,Plane - ?,,39,,,,,fly,3601,,,1,recallproc1
D_JOL A 2,117,1,BlockProc1,Block1,126,,,Past - ?,,57,,,,,future,2608,,,1,recallproc1
D_JOL A 2,117,1,BlockProc1,Block1,127,,,Revolution - ?,,15,,,,,war,2727,,,1,recallproc1
D_JOL A 2,117,1,BlockProc1,Block1,128,,,Clothes - ?,,38,,,,,pants,5865,,,1,recallproc1
D_JOL A 2,117,1,BlockProc1,Block1,129,,,Work - ?,,34,,,,,money,3789,,,1,recallproc1
D_JOL A 2,117,1,BlockProc1,Block1,130,,,Sugar - ?,,76,,,,,food,33987,,,1,recallproc1
D_JOL A 2,117,1,BlockProc1,Block1,131,,,Hide - ?,,79,,,,,cover,11537,,,1,recallproc1
D_JOL A 2,117,1,BlockProc1,Block1,132,,,Bridge - ?,,13,,,,,water,2561,,,1,recallproc1
D_JOL A 2,117,1,BlockProc1,Block1,133,,,Bitter - ?,,7,,,,,sad,3129,,,1,recallproc1
D_JOL A 2,117,1,BlockProc1,Block1,134,,,Editor - ?,,5,,,,,paper,6531,,,1,recallproc1
D_JOL A 2,117,1,BlockProc1,Block1,135,,,Hot - ?,,32,,,,,cold,4557,,,1,recallproc1
D_JOL A 2,117,1,BlockProc1,Block1,136,,,Fire - ?,,40,,,,,flamee,7853,,,1,recallproc1
D_JOL A 2,117,1,BlockProc1,Block1,137,,,Death - ?,,67,,,,,birth,5834,,,1,recallproc1
D_JOL A 2,117,1,BlockProc1,Block1,138,,,Root - ?,,8,,,,,plant,4663,,,1,recallproc1
D_JOL A 2,117,1,BlockProc1,Block1,139,,,Delinquent - ?,,1,,,,,prison,10923,,,1,recallproc1
D_JOL A 2,117,1,BlockProc1,Block1,140,,,Full - ?,,21,,,,,empty,5644,,,1,recallproc1
D_JOL A 2,117,1,BlockProc1,Block1,141,,,Way - ?,,11,,,,,out,2417,,,1,recallproc1
D_JOL A 2,117,1,BlockProc1,Block1,142,,,Park - ?,,63,,,,,swing,5127,,,1,recallproc1
D_JOL A 2,117,1,BlockProc1,Block1,143,,,Law - ?,,29,,,,,book,15169,,,1,recallproc1
D_JOL A 2,117,1,BlockProc1,Block1,144,,,Dietary - ?,,62,,,,,stomach,7160,,,1,recallproc1
D_JOL A 2,117,1,BlockProc1,Block1,145,,,Fix - ?,,70,,,,,make,20600,,,1,recallproc1
D_JOL A 2,117,1,BlockProc1,Block1,146,,,Digestion - ?,,2,,,,,stomach,5446,,,1,recallproc1
D_JOL A 2,117,1,BlockProc1,Block1,147,,,Chisel - ?,,4,,,,,shape,6091,,,1,recallproc1
D_JOL A 2,117,1,BlockProc1,Block1,148,,,Sentence - ?,,26,,,,,structure,6854,,,1,recallproc1
D_JOL A 2,117,1,BlockProc1,Block1,149,,,Baby - ?,,59,,,,,little,5218,,,1,recallproc1
D_JOL A 2,117,1,BlockProc1,Block1,150,,,Wage - ?,,3,,,,,mone,5384,,,1,recallproc1
D_JOL A 2,117,1,BlockProc1,Block1,151,,,Bathroom - ?,,53,,,,,toilet,4127,,,1,recallproc1
D_JOL A 2,117,1,BlockProc1,Block1,152,,,Lift - ?,,64,,,,,up,5521,,,1,recallproc1
D_JOL A 2,117,1,BlockProc1,Block1,153,,,Dump - ?,,44,,,,,trash,7771,,,1,recallproc1
D_JOL A 2,117,1,BlockProc1,Block1,154,,,Blow - ?,,50,,,,,up,10562,,,1,recallproc1
D_JOL A 2,117,1,BlockProc1,Block1,155,,,Strong - ?,,75,,,,,heavy,5594,,,1,recallproc1
D_JOL A 2,117,1,BlockProc1,Block1,156,,,Begin - ?,,49,,,,,end,2225,,,1,recallproc1
D_JOL A 2,117,1,BlockProc1,Block1,157,,,Discussion - ?,,16,,,,,talk,8575,,,1,recallproc1
D_JOL A 2,117,1,BlockProc1,Block1,158,,,Great - ?,,30,,,,,fantastic,8342,,,1,recallproc1
D_JOL A 2,117,1,BlockProc1,Block1,159,,,Hygiene - ?,,12,,,,,clean,2543,,,1,recallproc1
D_JOL A 2,117,1,BlockProc1,Block1,160,,,Sleep - ?,,36,,,,,rest,10192,,,1,recallproc1
D_JOL A 2,117,1,BlockProc1,Block1,161,,,Architecture - ?,,46,,,,,build,7991,,,1,recallproc1
D_JOL A 2,117,1,BlockProc1,Block1,162,,,Due - ?,,41,,,,,owe,4142,,,1,recallproc1
D_JOL A 2,117,1,BlockProc1,Block1,163,,,Hornet - ?,,6,,,,,sting,4439,,,1,recallproc1
D_JOL A 2,117,1,BlockProc1,Block1,164,,,Allow - ?,,73,,,,,take,13220,,,1,recallproc1
D_JOL A 2,117,1,BlockProc1,Block1,165,,,Choice - ?,,54,,,,,option,6721,,,1,recallproc1
D_JOL A 2,117,1,BlockProc1,Block1,166,,,Tuna - ?,,20,,,,,fish,1907,,,1,recallproc1
D_JOL A 2,117,1,BlockProc1,Block1,167,,,Height - ?,,25,,,,,weight,3493,,,1,recallproc1
D_JOL A 2,117,1,BlockProc1,Block1,168,,,Take - ?,,24,,,,,seize,3648,,,1,recallproc1
D_JOL A 2,117,1,BlockProc1,Block1,169,,,Artery - ?,,69,,,,,bronze,3949,,,1,recallproc1
D_JOL A 2,117,1,BlockProc1,Block1,170,,,Lettuce - ?,,56,,,,,leaf,4790,,,1,recallproc1
D_JOL A 2,117,1,BlockProc2,Block2,1,,,Hide - Scare,,2,,,,,,,,,1,StudyProc4
D_JOL A 2,117,1,BlockProc2,Block2,2,,,Essay - Write,,4,,,,,,,,,1,StudyProc4
D_JOL A 2,117,1,BlockProc2,Block2,3,,,Disintegrate - Disappear,,3,,,,,,,,,1,StudyProc4
D_JOL A 2,117,1,BlockProc2,Block2,4,,,Malt - Chocolate,,5,,,,,,,,,1,StudyProc4
D_JOL A 2,117,1,BlockProc2,Block2,5,,,Sheriff - Police,,1,,,,,,,,,1,StudyProc4
D_JOL A 2,117,1,BlockProc2,Block2,6,,5,Detective - Mystery,F,5,,,40,2657,,,,,1,StudyProc5
D_JOL A 2,117,1,BlockProc2,Block2,7,,75,Loan - Sign,U,75,,,45,3115,,,,,1,StudyProc5
D_JOL A 2,117,1,BlockProc2,Block2,8,,3,Cactus - Plant,F,3,,,65,2223,,,,,1,StudyProc5
D_JOL A 2,117,1,BlockProc2,Block2,9,,53,Truth - Lie,S,53,,,75,5971,,,,,1,StudyProc5
D_JOL A 2,117,1,BlockProc2,Block2,10,,57,Loud - Noise,S,57,,,70,2384,,,,,1,StudyProc5
D_JOL A 2,117,1,BlockProc2,Block2,11,,51,Dry - Wet,S,51,,,80,2337,,,,,1,StudyProc5
D_JOL A 2,117,1,BlockProc2,Block2,12,,33,Dead - Coffin,B,33,,,90,2880,,,,,1,StudyProc5
D_JOL A 2,117,1,BlockProc2,Block2,13,,37,Money - Banker,B,37,,,80,1645,,,,,1,StudyProc5
D_JOL A 2,117,1,BlockProc2,Block2,14,,23,Bad - Villain,B,23,,,50,3962,,,,,1,StudyProc5
D_JOL A 2,117,1,BlockProc2,Block2,15,,8,Litter - Trash,F,8,,,70,2718,,,,,1,StudyProc5
D_JOL A 2,117,1,BlockProc2,Block2,16,,47,Gone - Away,S,47,,,75,3048,,,,,1,StudyProc5
D_JOL A 2,117,1,BlockProc2,Block2,17,,66,Crackle - Able,U,66,,,45,2548,,,,,1,StudyProc5
D_JOL A 2,117,1,BlockProc2,Block2,18,,68,Listen - Fiction,U,68,,,50,2583,,,,,1,StudyProc5
D_JOL A 2,117,1,BlockProc2,Block2,19,,31,Cat - Panther,B,31,,,65,1991,,,,,1,StudyProc5
D_JOL A 2,117,1,BlockProc2,Block2,20,,55,Rod - Reel,S,55,,,80,2849,,,,,1,StudyProc5
D_JOL A 2,117,1,BlockProc2,Block2,21,,52,Safety - Seatbelt,S,52,,,70,2212,,,,,1,StudyProc5
D_JOL A 2,117,1,BlockProc2,Block2,22,,6,Adjourn - End,F,6,,,40,1402,,,,,1,StudyProc5
D_JOL A 2,117,1,BlockProc2,Block2,23,,67,Shell - Snake,U,67,,,60,3099,,,,,1,StudyProc5
D_JOL A 2,117,1,BlockProc2,Block2,24,,9,Cherry - Red,F,9,,,80,3559,,,,,1,StudyProc5
D_JOL A 2,117,1,BlockProc2,Block2,25,,80,Charm - Vehicle,U,80,,,50,3147,,,,,1,StudyProc5
D_JOL A 2,117,1,BlockProc2,Block2,26,,79,Main - Scar,U,79,,,40,2249,,,,,1,StudyProc5
D_JOL A 2,117,1,BlockProc2,Block2,27,,62,Stretch - Cloth,U,62,,,55,4621,,,,,1,StudyProc5
D_JOL A 2,117,1,BlockProc2,Block2,28,,26,Thread - Thimble,B,26,,,40,2851,,,,,1,StudyProc5
D_JOL A 2,117,1,BlockProc2,Block2,29,,7,Furry - Dog,F,7,,,75,3101,,,,,1,StudyProc5
D_JOL A 2,117,1,BlockProc2,Block2,30,,46,Element - Carbon,S,46,,,45,1872,,,,,1,StudyProc5
D_JOL A 2,117,1,BlockProc2,Block2,31,,27,Even - Revenge,B,27,,,80,6800,,,,,1,StudyProc5
D_JOL A 2,117,1,BlockProc2,Block2,32,,16,Dine - Eat,F,16,,,55,5343,,,,,1,StudyProc5
D_JOL A 2,117,1,BlockProc2,Block2,33,,14,Document - Paper,F,14,,,50,2142,,,,,1,StudyProc5
D_JOL A 2,117,1,BlockProc2,Block2,34,,24,Bird - Penguin,B,24,,,70,2640,,,,,1,StudyProc5
D_JOL A 2,117,1,BlockProc2,Block2,35,,58,Own - Have,S,58,,,45,6173,,,,,1,StudyProc5
D_JOL A 2,117,1,BlockProc2,Block2,36,,39,Sleep - Nap,B,39,,,55,7392,,,,,1,StudyProc5
D_JOL A 2,117,1,BlockProc2,Block2,37,,4,Shoelace - Tie,F,4,,,55,3887,,,,,1,StudyProc5
D_JOL A 2,117,1,BlockProc2,Block2,38,,20,Affection - Love,F,20,,,70,2515,,,,,1,StudyProc5
D_JOL A 2,117,1,BlockProc2,Block2,39,,36,Baseball - League,B,36,,,65,4665,,,,,1,StudyProc5
D_JOL A 2,117,1,BlockProc2,Block2,40,,48,Water - Drink,S,48,,,80,2906,,,,,1,StudyProc5
D_JOL A 2,117,1,BlockProc2,Block2,41,,64,Maze - Election,U,64,,,0,2697,,,,,1,StudyProc5
D_JOL A 2,117,1,BlockProc2,Block2,42,,32,Glass - Breakable,B,32,,,70,3003,,,,,1,StudyProc5
D_JOL A 2,117,1,BlockProc2,Block2,43,,71,Name - Hate,U,71,,,40,3835,,,,,1,StudyProc5
D_JOL A 2,117,1,BlockProc2,Block2,44,,29,Fruit - Strawberry,B,29,,,30,4682,,,,,1,StudyProc5
D_JOL A 2,117,1,BlockProc2,Block2,45,,41,Razor - Shave,S,41,,,60,2612,,,,,1,StudyProc5
D_JOL A 2,117,1,BlockProc2,Block2,46,,72,Fuzzy - Bang,U,72,,,,3384,,,,,1,StudyProc5
D_JOL A 2,117,1,BlockProc2,Block2,47,,21,Turn - Flip,B,21,,,40,2540,,,,,1,StudyProc5
D_JOL A 2,117,1,BlockProc2,Block2,48,,49,Earth - Ground,S,49,,,50,3588,,,,,1,StudyProc5
D_JOL A 2,117,1,BlockProc2,Block2,49,,56,Flea - Tick,S,56,,,50,2030,,,,,1,StudyProc5
D_JOL A 2,117,1,BlockProc2,Block2,50,,45,Wrist - Bracelet,S,45,,,45,2150,,,,,1,StudyProc5
D_JOL A 2,117,1,BlockProc2,Block2,51,,1,Extension - Long,F,1,,,30,3992,,,,,1,StudyProc5
D_JOL A 2,117,1,BlockProc2,Block2,52,,50,Alone - Lonely,S,50,,,0,7867,,,,,1,StudyProc5
D_JOL A 2,117,1,BlockProc2,Block2,53,,17,Shears - Scissors,F,17,,,67,3917,,,,,1,StudyProc5
D_JOL A 2,117,1,BlockProc2,Block2,54,,44,Candle - Wax,S,44,,,60,2150,,,,,1,StudyProc5
D_JOL A 2,117,1,BlockProc2,Block2,55,,35,Fish - Sardine,B,35,,,55,2630,,,,,1,StudyProc5
D_JOL A 2,117,1,BlockProc2,Block2,56,,76,Both - Ounce,U,76,,,40,4194,,,,,1,StudyProc5
D_JOL A 2,117,1,BlockProc2,Block2,57,,22,Car - Windshield,B,22,,,45,3199,,,,,1,StudyProc5
D_JOL A 2,117,1,BlockProc2,Block2,58,,42,Rights - Equal,S,42,,,55,1930,,,,,1,StudyProc5
D_JOL A 2,117,1,BlockProc2,Block2,59,,43,Mason - Jar,S,43,,,75,5500,,,,,1,StudyProc5
D_JOL A 2,117,1,BlockProc2,Block2,60,,19,Chill - Cold,F,19,,,65,2309,,,,,1,StudyProc5
D_JOL A 2,117,1,BlockProc2,Block2,61,,54,Phone - Communication,S,54,,,,2549,,,,,1,StudyProc5
D_JOL A 2,117,1,BlockProc2,Block2,62,,2,Clue - Game,F,2,,,35,4115,,,,,1,StudyProc5
D_JOL A 2,117,1,BlockProc2,Block2,63,,30,Best - Favorite,B,30,,,30,4621,,,,,1,StudyProc5
D_JOL A 2,117,1,BlockProc2,Block2,64,,13,Mule - Donkey,F,13,,,75,2615,,,,,1,StudyProc5
D_JOL A 2,117,1,BlockProc2,Block2,65,,65,Meat - Obtain,U,65,,,35,1431,,,,,1,StudyProc5
D_JOL A 2,117,1,BlockProc2,Block2,66,,38,Honest - Truthful,B,38,,,70,3496,,,,,1,StudyProc5
D_JOL A 2,117,1,BlockProc2,Block2,67,,61,Justice - Maroon,U,61,,,45,2759,,,,,1,StudyProc5
D_JOL A 2,117,1,BlockProc2,Block2,68,,12,Chop - Cut,F,12,,,65,2620,,,,,1,StudyProc5
D_JOL A 2,117,1,BlockProc2,Block2,69,,63,Give - Steak,U,63,,,35,3239,,,,,1,StudyProc5
D_JOL A 2,117,1,BlockProc2,Block2,70,,11,Driver - Car,F,11,,,65,1906,,,,,1,StudyProc5
D_JOL A 2,117,1,BlockProc2,Block2,71,,73,Moat - Clear,U,73,,,30,2698,,,,,1,StudyProc5
D_JOL A 2,117,1,BlockProc2,Block2,72,,40,Fight - Brawl,B,40,,,45,3648,,,,,1,StudyProc5
D_JOL A 2,117,1,BlockProc2,Block2,73,,69,Keys - Joke,U,69,,,0,10727,,,,,1,StudyProc5
D_JOL A 2,117,1,BlockProc2,Block2,74,,34,Plane - Aircraft,B,34,,,10,4810,,,,,1,StudyProc5
D_JOL A 2,117,1,BlockProc2,Block2,75,,15,Incense - Smell,F,15,,,55,2602,,,,,1,StudyProc5
D_JOL A 2,117,1,BlockProc2,Block2,76,,60,Sun - Tan,S,60,,,65,3546,,,,,1,StudyProc5
D_JOL A 2,117,1,BlockProc2,Block2,77,,18,Feud - Fight,F,18,,,40,2509,,,,,1,StudyProc5
D_JOL A 2,117,1,BlockProc2,Block2,78,,70,Cake - Clothes,U,70,,,20,2282,,,,,1,StudyProc5
D_JOL A 2,117,1,BlockProc2,Block2,79,,77,Temperature - Morning,U,77,,,30,7423,,,,,1,StudyProc5
D_JOL A 2,117,1,BlockProc2,Block2,80,,28,Pop - Balloon,B,28,,,55,2299,,,,,1,StudyProc5
D_JOL A 2,117,1,BlockProc2,Block2,81,,74,Lease - Toil,U,74,,,30,2010,,,,,1,StudyProc5
D_JOL A 2,117,1,BlockProc2,Block2,82,,59,Tantrum - Temper,S,59,,,35,2675,,,,,1,StudyProc5
D_JOL A 2,117,1,BlockProc2,Block2,83,,25,Star - Actress,B,25,,,45,2627,,,,,1,StudyProc5
D_JOL A 2,117,1,BlockProc2,Block2,84,,10,Scalp - Head,F,10,,,55,1619,,,,,1,StudyProc5
D_JOL A 2,117,1,BlockProc2,Block2,85,,78,Mirror - Children,U,78,,,25,6961,,,,,1,StudyProc5
D_JOL A 2,117,1,BlockProc2,Block2,86,,,Mind - Matter,,2,,,,,,,,,1,StudyProc6
D_JOL A 2,117,1,BlockProc2,Block2,87,,,Deaf - Hear,,3,,,,,,,,,1,StudyProc6
D_JOL A 2,117,1,BlockProc2,Block2,88,,,Magician - Magic,,4,,,,,,,,,1,StudyProc6
D_JOL A 2,117,1,BlockProc2,Block2,89,,,Deciet - Cheat,,1,,,,,,,,,1,StudyProc6
D_JOL A 2,117,1,BlockProc2,Block2,90,,,Contest - Competition,,5,,,,,,,,,1,StudyProc6
D_JOL A 2,117,1,BlockProc2,Block2,91,,,Baseball - ?,,36,,,,,,,catcher,7386,1,recallproc2
D_JOL A 2,117,1,BlockProc2,Block2,92,,,Mason - ?,,43,,,,,,,jar,2105,1,recallproc2
D_JOL A 2,117,1,BlockProc2,Block2,93,,,Shears - ?,,17,,,,,,,scissors,7172,1,recallproc2
D_JOL A 2,117,1,BlockProc2,Block2,94,,,Chill - ?,,19,,,,,,,cold,6923,1,recallproc2
D_JOL A 2,117,1,BlockProc2,Block2,95,,,Money - ?,,37,,,,,,,cashj,6389,1,recallproc2
D_JOL A 2,117,1,BlockProc2,Block2,96,,,Vehicle - ?,,65,,,,,,,car,3484,1,recallproc2
D_JOL A 2,117,1,BlockProc2,Block2,97,,,Furry - ?,,7,,,,,,,ounce,10616,1,recallproc2
D_JOL A 2,117,1,BlockProc2,Block2,98,,,Mule - ?,,13,,,,,,,donkey,3030,1,recallproc2
D_JOL A 2,117,1,BlockProc2,Block2,99,,,Rod - ?,,55,,,,,,,reel,2243,1,recallproc2
D_JOL A 2,117,1,BlockProc2,Block2,100,,,Cat - ?,,31,,,,,,,pet,11289,1,recallproc2
D_JOL A 2,117,1,BlockProc2,Block2,101,,,Chop - ?,,12,,,,,,,cut,2995,1,recallproc2
D_JOL A 2,117,1,BlockProc2,Block2,102,,,Sleep - ?,,39,,,,,,,nap,2026,1,recallproc2
D_JOL A 2,117,1,BlockProc2,Block2,103,,,Flea - ?,,56,,,,,,,tick,2128,1,recallproc2
D_JOL A 2,117,1,BlockProc2,Block2,104,,,Document - ?,,14,,,,,,,paper,8314,1,recallproc2
D_JOL A 2,117,1,BlockProc2,Block2,105,,,Glass - ?,,32,,,,,,,drink,5828,1,recallproc2
D_JOL A 2,117,1,BlockProc2,Block2,106,,,Rights - ?,,42,,,,,,,law,5458,1,recallproc2
D_JOL A 2,117,1,BlockProc2,Block2,107,,,Litter - ?,,8,,,,,,,trash,5830,1,recallproc2
D_JOL A 2,117,1,BlockProc2,Block2,108,,,Mirror - ?,,79,,,,,,,reflection,5044,1,recallproc2
D_JOL A 2,117,1,BlockProc2,Block2,109,,,Both - ?,,77,,,,,,,two,3745,1,recallproc2
D_JOL A 2,117,1,BlockProc2,Block2,110,,,Fuzzy - ?,,73,,,,,,,warm,2506,1,recallproc2
D_JOL A 2,117,1,BlockProc2,Block2,111,,,Thread - ?,,26,,,,,,,thimble,4380,1,recallproc2
D_JOL A 2,117,1,BlockProc2,Block2,112,,,Justice - ?,,61,,,,,,,law,3236,1,recallproc2
D_JOL A 2,117,1,BlockProc2,Block2,113,,,Give - ?,,63,,,,,,,take,3408,1,recallproc2
D_JOL A 2,117,1,BlockProc2,Block2,114,,,Bird - ?,,24,,,,,,,penguin,5408,1,recallproc2
D_JOL A 2,117,1,BlockProc2,Block2,115,,,Cake - ?,,71,,,,,,,batte,4654,1,recallproc2
D_JOL A 2,117,1,BlockProc2,Block2,116,,,Loud - ?,,57,,,,,,,noise,2457,1,recallproc2
D_JOL A 2,117,1,BlockProc2,Block2,117,,,Detective - ?,,5,,,,,,,documentaries,7407,1,recallproc2
D_JOL A 2,117,1,BlockProc2,Block2,118,,,Affection - ?,,20,,,,,,,lov,3613,1,recallproc2
D_JOL A 2,117,1,BlockProc2,Block2,119,,,Extension - ?,,1,,,,,,,long,5970,1,recallproc2
D_JOL A 2,117,1,BlockProc2,Block2,120,,,Wrist - ?,,45,,,,,,,wath,9355,1,recallproc2
D_JOL A 2,117,1,BlockProc2,Block2,121,,,Temperature - ?,,78,,,,,,,cold,15202,1,recallproc2
D_JOL A 2,117,1,BlockProc2,Block2,122,,,Adjourn - ?,,6,,,,,,,end,13504,1,recallproc2
D_JOL A 2,117,1,BlockProc2,Block2,123,,,Car - ?,,22,,,,,,,driver,3913,1,recallproc2
D_JOL A 2,117,1,BlockProc2,Block2,124,,,Dine - ?,,16,,,,,,,eat,3820,1,recallproc2
D_JOL A 2,117,1,BlockProc2,Block2,125,,,Crackle - ?,,67,,,,,,,pop,7962,1,recallproc2
D_JOL A 2,117,1,BlockProc2,Block2,126,,,Razor - ?,,41,,,,,,,shave,2250,1,recallproc2
D_JOL A 2,117,1,BlockProc2,Block2,127,,,Phone - ?,,54,,,,,,,ring,5815,1,recallproc2
D_JOL A 2,117,1,BlockProc2,Block2,128,,,Best - ?,,30,,,,,,,top,12037,1,recallproc2
D_JOL A 2,117,1,BlockProc2,Block2,129,,,Shell - ?,,68,,,,,,,monery,17850,1,recallproc2
D_JOL A 2,117,1,BlockProc2,Block2,130,,,Dry - ?,,51,,,,,,,wet,3966,1,recallproc2
D_JOL A 2,117,1,BlockProc2,Block2,131,,,Candle - ?,,44,,,,,,,wax,4982,1,recallproc2
D_JOL A 2,117,1,BlockProc2,Block2,132,,,Loan - ?,,76,,,,,,,take,8334,1,recallproc2
D_JOL A 2,117,1,BlockProc2,Block2,133,,,Scalp - ?,,10,,,,,,,head,2807,1,recallproc2
D_JOL A 2,117,1,BlockProc2,Block2,134,,,Fish - ?,,35,,,,,,,tun,3766,1,recallproc2
D_JOL A 2,117,1,BlockProc2,Block2,135,,,Plane - ?,,34,,,,,,,air,5502,1,recallproc2
D_JOL A 2,117,1,BlockProc2,Block2,136,,,Meat - ?,,66,,,,,,,chicken,23097,1,recallproc2
D_JOL A 2,117,1,BlockProc2,Block2,137,,,Lease - ?,,75,,,,,,,give,5730,1,recallproc2
D_JOL A 2,117,1,BlockProc2,Block2,138,,,Earth - ?,,49,,,,,,,ground,3828,1,recallproc2
D_JOL A 2,117,1,BlockProc2,Block2,139,,,Element - ?,,46,,,,,,,carbon,6034,1,recallproc2
D_JOL A 2,117,1,BlockProc2,Block2,140,,,Maze - ?,,64,,,,,,,search,12087,1,recallproc2
D_JOL A 2,117,1,BlockProc2,Block2,141,,,Fruit - ?,,29,,,,,,,strawberries,6762,1,recallproc2
D_JOL A 2,117,1,BlockProc2,Block2,142,,,Bad - ?,,23,,,,,,,good,10114,1,recallproc2
D_JOL A 2,117,1,BlockProc2,Block2,143,,,Keys - ?,,70,,,,,,,open,3556,1,recallproc2
D_JOL A 2,117,1,BlockProc2,Block2,144,,,Gone - ?,,47,,,,,,,away,3020,1,recallproc2
D_JOL A 2,117,1,BlockProc2,Block2,145,,,Incense - ?,,15,,,,,,,smell,2706,1,recallproc2
D_JOL A 2,117,1,BlockProc2,Block2,146,,,Cactus - ?,,3,,,,,,,plant,2765,1,recallproc2
D_JOL A 2,117,1,BlockProc2,Block2,147,,,Stretch - ?,,62,,,,,,,reach,5701,1,recallproc2
D_JOL A 2,117,1,BlockProc2,Block2,148,,,Water,,48,,,,,,,wet,10560,1,recallproc2
D_JOL A 2,117,1,BlockProc2,Block2,149,,,Truth - ?,,53,,,,,,,lies,6167,1,recallproc2
D_JOL A 2,117,1,BlockProc2,Block2,150,,,Shoelace - ?,,4,,,,,,,tie,4359,1,recallproc2
D_JOL A 2,117,1,BlockProc2,Block2,151,,,Turn - ?,,21,,,,,,,around,2831,1,recallproc2
D_JOL A 2,117,1,BlockProc2,Block2,152,,,Pop - ?,,28,,,,,,,soda,2053,1,recallproc2
D_JOL A 2,117,1,BlockProc2,Block2,153,,,Driver - ?,,11,,,,,,,car,2186,1,recallproc2
D_JOL A 2,117,1,BlockProc2,Block2,154,,,Fight - ?,,40,,,,,,,fright,12753,1,recallproc2
D_JOL A 2,117,1,BlockProc2,Block2,155,,,Tantrum - ?,,59,,,,,,,temper,3113,1,recallproc2
D_JOL A 2,117,1,BlockProc2,Block2,156,,,Own - ?,,58,,,,,,,have,3139,1,recallproc2
D_JOL A 2,117,1,BlockProc2,Block2,157,,,Star - ?,,25,,,,,,,bright,3332,1,recallproc2
D_JOL A 2,117,1,BlockProc2,Block2,158,,,Clue - ?,,2,,,,,,,detective,5574,1,recallproc2
D_JOL A 2,117,1,BlockProc2,Block2,159,,,Name - ?,,72,,,,,,,watch,5806,1,recallproc2
D_JOL A 2,117,1,BlockProc2,Block2,160,,,Safety - ?,,52,,,,,,,seatbelt,3996,1,recallproc2
D_JOL A 2,117,1,BlockProc2,Block2,161,,,Sun - ?,,60,,,,,,,bright,5955,1,recallproc2
D_JOL A 2,117,1,BlockProc2,Block2,162,,,Listen - ?,,69,,,,,,,hear,2171,1,recallproc2
D_JOL A 2,117,1,BlockProc2,Block2,163,,,Cherry - ?,,9,,,,,,,red,2027,1,recallproc2
D_JOL A 2,117,1,BlockProc2,Block2,164,,,Even - ?,,27,,,,,,,out,4865,1,recallproc2
D_JOL A 2,117,1,BlockProc2,Block2,165,,,Dead - ?,,33,,,,,,,coffin,5069,1,recallproc2
D_JOL A 2,117,1,BlockProc2,Block2,166,,,Main - ?,,80,,,,,,,road,5225,1,recallproc2
D_JOL A 2,117,1,BlockProc2,Block2,167,,,Feud - ?,,18,,,,,,,fight,2183,1,recallproc2
D_JOL A 2,117,1,BlockProc2,Block2,168,,,Moat - ?,,74,,,,,,,clear,2479,1,recallproc2
D_JOL A 2,117,1,BlockProc2,Block2,169,,,Alone - ?,,50,,,,,,,lonely,3122,1,recallproc2
D_JOL A 2,117,1,BlockProc2,Block2,170,,,Honest - ?,,38,,,,,,,truthful,3828,1,recallproc2
D_JOL A 2,121,1,BlockProc1,Block1,1,,,Member - Group,,5,,,,,,,,,1,StudyProc1
D_JOL A 2,121,1,BlockProc1,Block1,2,,,Shrimp - Fish,,4,,,,,,,,,1,StudyProc1
D_JOL A 2,121,1,BlockProc1,Block1,3,,,Curtain - Drapes,,2,,,,,,,,,1,StudyProc1
D_JOL A 2,121,1,BlockProc1,Block1,4,,,Haircut-Scissors,,1,,,,,,,,,1,StudyProc1
D_JOL A 2,121,1,BlockProc1,Block1,5,,,Snow - Ice,,3,,,,,,,,,1,StudyProc1
D_JOL A 2,121,1,BlockProc1,Block1,6,7,,Bitter - Cold,F,7,5,6596,,,,,,,1,StudyProc3
D_JOL A 2,121,1,BlockProc1,Block1,7,18,,Credit - Card,F,18,100,3582,,,,,,,1,StudyProc3
D_JOL A 2,121,1,BlockProc1,Block1,8,9,,Swan - Bird,F,9,75,4366,,,,,,,1,StudyProc3
D_JOL A 2,121,1,BlockProc1,Block1,9,24,,Take - Seize,B,24,0,6000,,,,,,,1,StudyProc3
D_JOL A 2,121,1,BlockProc1,Block1,10,50,,Blow - Wind,S,50,25,4347,,,,,,,1,StudyProc3
D_JOL A 2,121,1,BlockProc1,Block1,11,17,,Herd - Cow,F,17,20,6636,,,,,,,1,StudyProc3
D_JOL A 2,121,1,BlockProc1,Block1,12,29,,Law - Attorney,B,29,75,5971,,,,,,,1,StudyProc3
D_JOL A 2,121,1,BlockProc1,Block1,13,26,,Sentence - Word,B,26,85,3717,,,,,,,1,StudyProc3
D_JOL A 2,121,1,BlockProc1,Block1,14,54,,Choice - Decision,S,54,80,3535,,,,,,,1,StudyProc3
D_JOL A 2,121,1,BlockProc1,Block1,15,5,,Editor - News,F,5,40,5013,,,,,,,1,StudyProc3
D_JOL A 2,121,1,BlockProc1,Block1,16,22,,Drink - Sip,B,22,70,2697,,,,,,,1,StudyProc3
D_JOL A 2,121,1,BlockProc1,Block1,17,72,,Happy - Car,U,72,0,5146,,,,,,,1,StudyProc3
D_JOL A 2,121,1,BlockProc1,Block1,18,56,,Past - Future,S,57,95,5574,,,,,,,1,StudyProc3
D_JOL A 2,121,1,BlockProc1,Block1,19,27,,Bug - Wasp,B,27,65,4283,,,,,,,1,StudyProc3
D_JOL A 2,121,1,BlockProc1,Block1,20,34,,Work - Chore,B,34,10,4893,,,,,,,1,StudyProc3
D_JOL A 2,121,1,BlockProc1,Block1,21,75,,Strong - Accident,U,75,20,4300,,,,,,,1,StudyProc3
D_JOL A 2,121,1,BlockProc1,Block1,22,38,,Clothes - Attire,B,38,25,5845,,,,,,,1,StudyProc3
D_JOL A 2,121,1,BlockProc1,Block1,23,42,,Number - Amount,S,42,5,5466,,,,,,,1,StudyProc3
D_JOL A 2,121,1,BlockProc1,Block1,24,57,,Lettuce - Salad,S,56,95,3488,,,,,,,1,StudyProc3
D_JOL A 2,121,1,BlockProc1,Block1,25,44,,Dump - Waste,S,44,85,4952,,,,,,,1,StudyProc3
D_JOL A 2,121,1,BlockProc1,Block1,26,64,,Lift - Woman,U,64,70,2066,,,,,,,1,StudyProc3
D_JOL A 2,121,1,BlockProc1,Block1,27,19,,Orchid - Flower,F,19,25,6024,,,,,,,1,StudyProc3
D_JOL A 2,121,1,BlockProc1,Block1,28,15,,Revolution - War,F,15,70,3655,,,,,,,1,StudyProc3
D_JOL A 2,121,1,BlockProc1,Block1,29,16,,Discussion - Talk,F,16,5,8975,,,,,,,1,StudyProc3
D_JOL A 2,121,1,BlockProc1,Block1,30,4,,Chisel - Hammer,F,4,25,7266,,,,,,,1,StudyProc3
D_JOL A 2,121,1,BlockProc1,Block1,31,79,,Hide - Sick,U,79,100,2444,,,,,,,1,StudyProc3
D_JOL A 2,121,1,BlockProc1,Block1,32,59,,Baby - Child,S,59,95,7492,,,,,,,1,StudyProc3
D_JOL A 2,121,1,BlockProc1,Block1,33,48,,Kidney - Liver,S,48,100,7256,,,,,,,1,StudyProc3
D_JOL A 2,121,1,BlockProc1,Block1,34,39,,Plane - Pilot,B,39,95,5381,,,,,,,1,StudyProc3
D_JOL A 2,121,1,BlockProc1,Block1,35,31,,Key - Latch,B,31,10,3936,,,,,,,1,StudyProc3
D_JOL A 2,121,1,BlockProc1,Block1,36,78,,Cash - Would,U,78,0,1959,,,,,,,1,StudyProc3
D_JOL A 2,121,1,BlockProc1,Block1,37,60,,Circle - Round,S,60,100,4318,,,,,,,1,StudyProc3
D_JOL A 2,121,1,BlockProc1,Block1,38,11,,Way - Out,F,11,85,4362,,,,,,,1,StudyProc3
D_JOL A 2,121,1,BlockProc1,Block1,39,35,,Hunger - Famine,B,35,60,6858,,,,,,,1,StudyProc3
D_JOL A 2,121,1,BlockProc1,Block1,40,53,,Bathroom - Toilet,S,53,100,6408,,,,,,,1,StudyProc3
D_JOL A 2,121,1,BlockProc1,Block1,41,51,,Pop - Soda,S,51,100,6528,,,,,,,1,StudyProc3
D_JOL A 2,121,1,BlockProc1,Block1,42,3,,Wage - Money,F,3,9,4036,,,,,,,1,StudyProc3
D_JOL A 2,121,1,BlockProc1,Block1,43,45,,Trial - Jury,S,45,75,4600,,,,,,,1,StudyProc3
D_JOL A 2,121,1,BlockProc1,Block1,44,21,,Full - Enough,B,21,90,1726,,,,,,,1,StudyProc3
D_JOL A 2,121,1,BlockProc1,Block1,45,36,,Sleep - Drowsy,B,36,100,4406,,,,,,,1,StudyProc3
D_JOL A 2,121,1,BlockProc1,Block1,46,1,,Delinquent - Bad,F,1,90,2721,,,,,,,1,StudyProc3
D_JOL A 2,121,1,BlockProc1,Block1,47,80,,King - Vase,U,80,95,3350,,,,,,,1,StudyProc3
D_JOL A 2,121,1,BlockProc1,Block1,48,47,,Grill -Bar,S,47,5,3424,,,,,,,1,StudyProc3
D_JOL A 2,121,1,BlockProc1,Block1,49,76,,Sugar - Riddle,U,76,0,4172,,,,,,,1,StudyProc3
D_JOL A 2,121,1,BlockProc1,Block1,50,66,,Discover - Floor,U,66,0,1945,,,,,,,1,StudyProc3
D_JOL A 2,121,1,BlockProc1,Block1,51,74,,Art - Lion,U,74,80,2837,,,,,,,1,StudyProc3
D_JOL A 2,121,1,BlockProc1,Block1,52,71,,Machine - Position,U,71,75,2432,,,,,,,1,StudyProc3
D_JOL A 2,121,1,BlockProc1,Block1,53,46,,Architecture - Design,S,46,5,7349,,,,,,,1,StudyProc3
D_JOL A 2,121,1,BlockProc1,Block1,54,52,,Wine - Cheese,S,52,85,7127,,,,,,,1,StudyProc3
D_JOL A 2,121,1,BlockProc1,Block1,55,77,,Valley - Add,U,77,25,4648,,,,,,,1,StudyProc3
D_JOL A 2,121,1,BlockProc1,Block1,56,62,,Dietary - Sacking,U,62,20,3492,,,,,,,1,StudyProc3
D_JOL A 2,121,1,BlockProc1,Block1,57,67,,Death - Business,U,67,90,3051,,,,,,,1,StudyProc3
D_JOL A 2,121,1,BlockProc1,Block1,58,30,,Great - Fantastic,B,30,0,10294,,,,,,,1,StudyProc3
D_JOL A 2,121,1,BlockProc1,Block1,59,40,,Fire - Blaze,B,40,100,4774,,,,,,,1,StudyProc3
D_JOL A 2,121,1,BlockProc1,Block1,60,70,,Fix - Hand,U,70,0,2017,,,,,,,1,StudyProc3
D_JOL A 2,121,1,BlockProc1,Block1,61,69,,Artery - Bronze,U,69,0,1589,,,,,,,1,StudyProc3
D_JOL A 2,121,1,BlockProc1,Block1,62,13,,Bridge - Water,F,13,90,3223,,,,,,,1,StudyProc3
D_JOL A 2,121,1,BlockProc1,Block1,63,2,,Digestion - Stomach,F,2,95,4855,,,,,,,1,StudyProc3
D_JOL A 2,121,1,BlockProc1,Block1,64,65,,Soon - Belt,U,65,0,4141,,,,,,,1,StudyProc3
D_JOL A 2,121,1,BlockProc1,Block1,65,32,,Hot - Chili,B,32,100,3105,,,,,,,1,StudyProc3
D_JOL A 2,121,1,BlockProc1,Block1,66,6,,Hornet - Sting,F,6,90,4477,,,,,,,1,StudyProc3
D_JOL A 2,121,1,BlockProc1,Block1,67,68,,Debate - Sight,U,68,10,3937,,,,,,,1,StudyProc3
D_JOL A 2,121,1,BlockProc1,Block1,68,55,,Shoe - Foot,S,55,100,3393,,,,,,,1,StudyProc3
D_JOL A 2,121,1,BlockProc1,Block1,69,61,,Pusher - Clutter,U,61,90,2399,,,,,,,1,StudyProc3
D_JOL A 2,121,1,BlockProc1,Block1,70,28,,Math - Division,B,28,100,2703,,,,,,,1,StudyProc3
D_JOL A 2,121,1,BlockProc1,Block1,71,58,,Honey - Bee,S,58,100,9709,,,,,,,1,StudyProc3
D_JOL A 2,121,1,BlockProc1,Block1,72,23,,Dark - Cave,B,23,90,2390,,,,,,,1,StudyProc3
D_JOL A 2,121,1,BlockProc1,Block1,73,37,,Smell - Stench,B,37,75,4553,,,,,,,1,StudyProc3
D_JOL A 2,121,1,BlockProc1,Block1,74,25,,Height - Growth,B,25,90,4520,,,,,,,1,StudyProc3
D_JOL A 2,121,1,BlockProc1,Block1,75,14,,Geology - Rock,F,14,100,2683,,,,,,,1,StudyProc3
D_JOL A 2,121,1,BlockProc1,Block1,76,8,,Root - Plant,F,8,75,2896,,,,,,,1,StudyProc3
D_JOL A 2,121,1,BlockProc1,Block1,77,43,,Location - Site,S,43,75,5324,,,,,,,1,StudyProc3
D_JOL A 2,121,1,BlockProc1,Block1,78,63,,Park - Hungry,U,63,0,3503,,,,,,,1,StudyProc3
D_JOL A 2,121,1,BlockProc1,Block1,79,41,,Due - Assignment,S,41,100,3349,,,,,,,1,StudyProc3
D_JOL A 2,121,1,BlockProc1,Block1,80,20,,Tuna -  Fish,F,20,100,2683,,,,,,,1,StudyProc3
D_JOL A 2,121,1,BlockProc1,Block1,81,73,,Allow - Tuck,U,73,0,4356,,,,,,,1,StudyProc3
D_JOL A 2,121,1,BlockProc1,Block1,82,33,,Ball - Racket,B,33,100,3379,,,,,,,1,StudyProc3
D_JOL A 2,121,1,BlockProc1,Block1,83,10,,Paw - Dog,F,10,90,2805,,,,,,,1,StudyProc3
D_JOL A 2,121,1,BlockProc1,Block1,84,49,,Begin - End,S,49,0,7249,,,,,,,1,StudyProc3
D_JOL A 2,121,1,BlockProc1,Block1,85,12,,Hygiene - Clean,F,12,95,5334,,,,,,,1,StudyProc3
D_JOL A 2,121,1,BlockProc1,Block1,86,,,Geese - Goose,,1,,,,,,,,,1,StudyProc2
D_JOL A 2,121,1,BlockProc1,Block1,87,,,Trees - Green,,5,,,,,,,,,1,StudyProc2
D_JOL A 2,121,1,BlockProc1,Block1,88,,,Grab - Take,,2,,,,,,,,,1,StudyProc2
D_JOL A 2,121,1,BlockProc1,Block1,89,,,Catcher - Baseball,,4,,,,,,,,,1,StudyProc2
D_JOL A 2,121,1,BlockProc1,Block1,90,,,Friendliness - Nice,,3,,,,,,,,,1,StudyProc2
D_JOL A 2,121,1,BlockProc1,Block1,91,,,Sleep - ?,,36,,,,,drowsy,5617,,,1,recallproc1
D_JOL A 2,121,1,BlockProc1,Block1,92,,,Geology - ?,,14,,,,,rock,2119,,,1,recallproc1
D_JOL A 2,121,1,BlockProc1,Block1,93,,,Fix - ?,,70,,,,,lock,6841,,,1,recallproc1
D_JOL A 2,121,1,BlockProc1,Block1,94,,,Circle - ?,,60,,,,,round,2310,,,1,recallproc1
D_JOL A 2,121,1,BlockProc1,Block1,95,,,Debate - ?,,68,,,,,argue,10657,,,1,recallproc1
D_JOL A 2,121,1,BlockProc1,Block1,96,,,Dark - ?,,23,,,,,cave,2533,,,1,recallproc1
D_JOL A 2,121,1,BlockProc1,Block1,97,,,Sugar - ?,,76,,,,,bitter,6182,,,1,recallproc1
D_JOL A 2,121,1,BlockProc1,Block1,98,,,Pusher - ?,,61,,,,,clutter,2678,,,1,recallproc1
D_JOL A 2,121,1,BlockProc1,Block1,99,,,Hot - ?,,32,,,,,chili,5370,,,1,recallproc1
D_JOL A 2,121,1,BlockProc1,Block1,100,,,Clothes - ?,,38,,,,,attire,2729,,,1,recallproc1
D_JOL A 2,121,1,BlockProc1,Block1,101,,,Lettuce - ?,,56,,,,,salad,3259,,,1,recallproc1
D_JOL A 2,121,1,BlockProc1,Block1,102,,,Lift - ?,,64,,,,,woman,2624,,,1,recallproc1
D_JOL A 2,121,1,BlockProc1,Block1,103,,,Wine - ?,,52,,,,,cheee,5590,,,1,recallproc1
D_JOL A 2,121,1,BlockProc1,Block1,104,,,Chisel - ?,,4,,,,,hammer,2821,,,1,recallproc1
D_JOL A 2,121,1,BlockProc1,Block1,105,,,Choice - ?,,54,,,,,decision,6194,,,1,recallproc1
D_JOL A 2,121,1,BlockProc1,Block1,106,,,Bug - ?,,27,,,,,wasp,4961,,,1,recallproc1
D_JOL A 2,121,1,BlockProc1,Block1,107,,,Sentence - ?,,26,,,,,words,3226,,,1,recallproc1
D_JOL A 2,121,1,BlockProc1,Block1,108,,,Soon - ?,,65,,,,,end,5391,,,1,recallproc1
D_JOL A 2,121,1,BlockProc1,Block1,109,,,Past - ?,,57,,,,,present,3982,,,1,recallproc1
D_JOL A 2,121,1,BlockProc1,Block1,110,,,Strong - ?,,75,,,,,weak,8318,,,1,recallproc1
D_JOL A 2,121,1,BlockProc1,Block1,111,,,Bathroom - ?,,53,,,,,toilet,2512,,,1,recallproc1
D_JOL A 2,121,1,BlockProc1,Block1,112,,,Smell - ?,,37,,,,,stench,2258,,,1,recallproc1
D_JOL A 2,121,1,BlockProc1,Block1,113,,,Credit - ?,,18,,,,,card,1719,,,1,recallproc1
D_JOL A 2,121,1,BlockProc1,Block1,114,,,Herd - ?,,17,,,,,cow,2088,,,1,recallproc1
D_JOL A 2,121,1,BlockProc1,Block1,115,,,Hygiene - ?,,12,,,,,clean,2308,,,1,recallproc1
D_JOL A 2,121,1,BlockProc1,Block1,116,,,Due - ?,,41,,,,,assignment,3774,,,1,recallproc1
D_JOL A 2,121,1,BlockProc1,Block1,117,,,Artery - ?,,69,,,,,line,3910,,,1,recallproc1
D_JOL A 2,121,1,BlockProc1,Block1,118,,,Valley - ?,,77,,,,,oil,5488,,,1,recallproc1
D_JOL A 2,121,1,BlockProc1,Block1,119,,,Paw - ?,,10,,,,,dog,1771,,,1,recallproc1
D_JOL A 2,121,1,BlockProc1,Block1,120,,,Art - ?,,74,,,,,,131,,,1,recallproc1
D_JOL A 2,121,1,BlockProc1,Block1,121,,,Hunger - ?,,35,,,,,famine,10613,,,1,recallproc1
D_JOL A 2,121,1,BlockProc1,Block1,122,,,Discussion - ?,,16,,,,,talk,4867,,,1,recallproc1
D_JOL A 2,121,1,BlockProc1,Block1,123,,,Dietary - ?,,62,,,,,food,3639,,,1,recallproc1
D_JOL A 2,121,1,BlockProc1,Block1,124,,,Baby - ?,,59,,,,,child,4620,,,1,recallproc1
D_JOL A 2,121,1,BlockProc1,Block1,125,,,Height - ?,,25,,,,,growth,7738,,,1,recallproc1
D_JOL A 2,121,1,BlockProc1,Block1,126,,,Full - ?,,21,,,,,starve,6459,,,1,recallproc1
D_JOL A 2,121,1,BlockProc1,Block1,127,,,King - ?,,80,,,,,vse,4663,,,1,recallproc1
D_JOL A 2,121,1,BlockProc1,Block1,128,,,Discover - ?,,66,,,,,lane,5772,,,1,recallproc1
D_JOL A 2,121,1,BlockProc1,Block1,129,,,Number - ?,,42,,,,,letter,4339,,,1,recallproc1
D_JOL A 2,121,1,BlockProc1,Block1,130,,,Kidney - ?,,48,,,,,liver,1956,,,1,recallproc1
D_JOL A 2,121,1,BlockProc1,Block1,131,,,Park - ?,,63,,,,,bench,3605,,,1,recallproc1
D_JOL A 2,121,1,BlockProc1,Block1,132,,,Editor - ?,,5,,,,,news,2123,,,1,recallproc1
D_JOL A 2,121,1,BlockProc1,Block1,133,,,Cash - ?,,78,,,,,money,6837,,,1,recallproc1
D_JOL A 2,121,1,BlockProc1,Block1,134,,,Blow - ?,,50,,,,,wind,2322,,,1,recallproc1
D_JOL A 2,121,1,BlockProc1,Block1,135,,,Way - ?,,11,,,,,out,3100,,,1,recallproc1
D_JOL A 2,121,1,BlockProc1,Block1,136,,,Drink - ?,,22,,,,,sip,2143,,,1,recallproc1
D_JOL A 2,121,1,BlockProc1,Block1,137,,,Orchid - ?,,19,,,,,flower,2200,,,1,recallproc1
D_JOL A 2,121,1,BlockProc1,Block1,138,,,Location - ?,,43,,,,,site,1855,,,1,recallproc1
D_JOL A 2,121,1,BlockProc1,Block1,139,,,Tuna - ?,,20,,,,,fish,1972,,,1,recallproc1
D_JOL A 2,121,1,BlockProc1,Block1,140,,,Shoe - ?,,55,,,,,foot,2380,,,1,recallproc1
D_JOL A 2,121,1,BlockProc1,Block1,141,,,Revolution - ?,,15,,,,,war,1764,,,1,recallproc1
D_JOL A 2,121,1,BlockProc1,Block1,142,,,Hornet - ?,,6,,,,,sting,4340,,,1,recallproc1
D_JOL A 2,121,1,BlockProc1,Block1,143,,,Hide - ?,,79,,,,,sick,5613,,,1,recallproc1
D_JOL A 2,121,1,BlockProc1,Block1,144,,,Pop - ?,,51,,,,,soda,3083,,,1,recallproc1
D_JOL A 2,121,1,BlockProc1,Block1,145,,,Bitter - ?,,7,,,,,ice,5743,,,1,recallproc1
D_JOL A 2,121,1,BlockProc1,Block1,146,,,Death - ?,,67,,,,,business,3488,,,1,recallproc1
D_JOL A 2,121,1,BlockProc1,Block1,147,,,Happy - ?,,72,,,,,fantastic,10587,,,1,recallproc1
D_JOL A 2,121,1,BlockProc1,Block1,148,,,Plane - ?,,39,,,,,pilot,2418,,,1,recallproc1
D_JOL A 2,121,1,BlockProc1,Block1,149,,,Root - ?,,8,,,,,plant,3664,,,1,recallproc1
D_JOL A 2,121,1,BlockProc1,Block1,150,,,Law - ?,,29,,,,,attorney,3316,,,1,recallproc1
D_JOL A 2,121,1,BlockProc1,Block1,151,,,Ball - ?,,33,,,,,catcher,3871,,,1,recallproc1
D_JOL A 2,121,1,BlockProc1,Block1,152,,,Honey - ?,,58,,,,,bee,1738,,,1,recallproc1
D_JOL A 2,121,1,BlockProc1,Block1,153,,,Architecture - ?,,46,,,,,design,7380,,,1,recallproc1
D_JOL A 2,121,1,BlockProc1,Block1,154,,,Key - ?,,31,,,,,latch,2451,,,1,recallproc1
D_JOL A 2,121,1,BlockProc1,Block1,155,,,Take - ?,,24,,,,,grab,5136,,,1,recallproc1
D_JOL A 2,121,1,BlockProc1,Block1,156,,,Great - ?,,30,,,,,good,5889,,,1,recallproc1
D_JOL A 2,121,1,BlockProc1,Block1,157,,,Wage - ?,,3,,,,,money,4483,,,1,recallproc1
D_JOL A 2,121,1,BlockProc1,Block1,158,,,Work - ?,,34,,,,,chore,2455,,,1,recallproc1
D_JOL A 2,121,1,BlockProc1,Block1,159,,,Delinquent - ?,,1,,,,,bad,1828,,,1,recallproc1
D_JOL A 2,121,1,BlockProc1,Block1,160,,,Begin - ?,,49,,,,,end,2130,,,1,recallproc1
D_JOL A 2,121,1,BlockProc1,Block1,161,,,Machine - ?,,71,,,,,position,7819,,,1,recallproc1
D_JOL A 2,121,1,BlockProc1,Block1,162,,,Dump - ?,,44,,,,,waste,4505,,,1,recallproc1
D_JOL A 2,121,1,BlockProc1,Block1,163,,,Swan - ?,,9,,,,,bird,2235,,,1,recallproc1
D_JOL A 2,121,1,BlockProc1,Block1,164,,,Math - ?,,28,,,,,solve,4648,,,1,recallproc1
D_JOL A 2,121,1,BlockProc1,Block1,165,,,Allow - ?,,73,,,,,end,4477,,,1,recallproc1
D_JOL A 2,121,1,BlockProc1,Block1,166,,,Grill - ?,,47,,,,,bar,3377,,,1,recallproc1
D_JOL A 2,121,1,BlockProc1,Block1,167,,,Trial - ?,,45,,,,,jury,2321,,,1,recallproc1
D_JOL A 2,121,1,BlockProc1,Block1,168,,,Bridge - ?,,13,,,,,water,1811,,,1,recallproc1
D_JOL A 2,121,1,BlockProc1,Block1,169,,,Digestion - ?,,2,,,,,stomach,3041,,,1,recallproc1
D_JOL A 2,121,1,BlockProc1,Block1,170,,,Fire - ?,,40,,,,,blaze,3126,,,1,recallproc1
D_JOL A 2,121,1,BlockProc2,Block2,1,,,Hide - Scare,,2,,,,,,,,,1,StudyProc4
D_JOL A 2,121,1,BlockProc2,Block2,2,,,Malt - Chocolate,,5,,,,,,,,,1,StudyProc4
D_JOL A 2,121,1,BlockProc2,Block2,3,,,Disintegrate - Disappear,,3,,,,,,,,,1,StudyProc4
D_JOL A 2,121,1,BlockProc2,Block2,4,,,Essay - Write,,4,,,,,,,,,1,StudyProc4
D_JOL A 2,121,1,BlockProc2,Block2,5,,,Sheriff - Police,,1,,,,,,,,,1,StudyProc4
D_JOL A 2,121,1,BlockProc2,Block2,6,,6,Adjourn - End,F,6,,,20,2523,,,,,1,StudyProc5
D_JOL A 2,121,1,BlockProc2,Block2,7,,73,Moat - Clear,U,73,,,10,2595,,,,,1,StudyProc5
D_JOL A 2,121,1,BlockProc2,Block2,8,,72,Fuzzy - Bang,U,72,,,0,1842,,,,,1,StudyProc5
D_JOL A 2,121,1,BlockProc2,Block2,9,,40,Fight - Brawl,B,40,,,100,1899,,,,,1,StudyProc5
D_JOL A 2,121,1,BlockProc2,Block2,10,,26,Thread - Thimble,B,26,,,90,2480,,,,,1,StudyProc5
D_JOL A 2,121,1,BlockProc2,Block2,11,,37,Money - Banker,B,37,,,100,2582,,,,,1,StudyProc5
D_JOL A 2,121,1,BlockProc2,Block2,12,,41,Razor - Shave,S,41,,,100,2578,,,,,1,StudyProc5
D_JOL A 2,121,1,BlockProc2,Block2,13,,76,Both - Ounce,U,76,,,5,3627,,,,,1,StudyProc5
D_JOL A 2,121,1,BlockProc2,Block2,14,,14,Document - Paper,F,14,,,100,3561,,,,,1,StudyProc5
D_JOL A 2,121,1,BlockProc2,Block2,15,,56,Flea - Tick,S,56,,,100,2568,,,,,1,StudyProc5
D_JOL A 2,121,1,BlockProc2,Block2,16,,63,Give - Steak,U,63,,,25,4197,,,,,1,StudyProc5
D_JOL A 2,121,1,BlockProc2,Block2,17,,3,Cactus - Plant,F,3,,,100,3031,,,,,1,StudyProc5
D_JOL A 2,121,1,BlockProc2,Block2,18,,10,Scalp - Head,F,10,,,100,2179,,,,,1,StudyProc5
D_JOL A 2,121,1,BlockProc2,Block2,19,,19,Chill - Cold,F,19,,,0,3546,,,,,1,StudyProc5
D_JOL A 2,121,1,BlockProc2,Block2,20,,70,Cake - Clothes,U,70,,,5,4936,,,,,1,StudyProc5
D_JOL A 2,121,1,BlockProc2,Block2,21,,49,Earth - Ground,S,49,,,10,4520,,,,,1,StudyProc5
D_JOL A 2,121,1,BlockProc2,Block2,22,,58,Own - Have,S,58,,,100,2149,,,,,1,StudyProc5
D_JOL A 2,121,1,BlockProc2,Block2,23,,28,Pop - Balloon,B,28,,,5,10602,,,,,1,StudyProc5
D_JOL A 2,121,1,BlockProc2,Block2,24,,67,Shell - Snake,U,67,,,100,3280,,,,,1,StudyProc5
D_JOL A 2,121,1,BlockProc2,Block2,25,,43,Mason - Jar,S,43,,,100,1001,,,,,1,StudyProc5
D_JOL A 2,121,1,BlockProc2,Block2,26,,57,Loud - Noise,S,57,,,100,2930,,,,,1,StudyProc5
D_JOL A 2,121,1,BlockProc2,Block2,27,,78,Mirror - Children,U,78,,,90,3790,,,,,1,StudyProc5
D_JOL A 2,121,1,BlockProc2,Block2,28,,54,Phone - Communication,S,54,,,100,1975,,,,,1,StudyProc5
D_JOL A 2,121,1,BlockProc2,Block2,29,,79,Main - Scar,U,79,,,100,1976,,,,,1,StudyProc5
D_JOL A 2,121,1,BlockProc2,Block2,30,,77,Temperature - Morning,U,77,,,100,2210,,,,,1,StudyProc5
D_JOL A 2,121,1,BlockProc2,Block2,31,,20,Affection - Love,F,20,,,100,1818,,,,,1,StudyProc5
D_JOL A 2,121,1,BlockProc2,Block2,32,,48,Water - Drink,S,48,,,100,5337,,,,,1,StudyProc5
D_JOL A 2,121,1,BlockProc2,Block2,33,,51,Dry - Wet,S,51,,,100,4373,,,,,1,StudyProc5
D_JOL A 2,121,1,BlockProc2,Block2,34,,25,Star - Actress,B,25,,,20,8340,,,,,1,StudyProc5
D_JOL A 2,121,1,BlockProc2,Block2,35,,11,Driver - Car,F,11,,,100,7620,,,,,1,StudyProc5
D_JOL A 2,121,1,BlockProc2,Block2,36,,65,Meat - Obtain,U,65,,,0,1460,,,,,1,StudyProc5
D_JOL A 2,121,1,BlockProc2,Block2,37,,69,Keys - Joke,U,69,,,10,2346,,,,,1,StudyProc5
D_JOL A 2,121,1,BlockProc2,Block2,38,,34,Plane - Aircraft,B,34,,,100,3675,,,,,1,StudyProc5
D_JOL A 2,121,1,BlockProc2,Block2,39,,46,Element - Carbon,S,46,,,100,2085,,,,,1,StudyProc5
D_JOL A 2,121,1,BlockProc2,Block2,40,,75,Loan - Sign,U,75,,,90,2989,,,,,1,StudyProc5
D_JOL A 2,121,1,BlockProc2,Block2,41,,55,Rod - Reel,S,55,,,0,739,,,,,1,StudyProc5
D_JOL A 2,121,1,BlockProc2,Block2,42,,16,Dine - Eat,F,16,,,0,3120,,,,,1,StudyProc5
D_JOL A 2,121,1,BlockProc2,Block2,43,,23,Bad - Villain,B,23,,,90,2527,,,,,1,StudyProc5
D_JOL A 2,121,1,BlockProc2,Block2,44,,38,Honest - Truthful,B,38,,,10,5289,,,,,1,StudyProc5
D_JOL A 2,121,1,BlockProc2,Block2,45,,52,Safety - Seatbelt,S,52,,,100,2506,,,,,1,StudyProc5
D_JOL A 2,121,1,BlockProc2,Block2,46,,31,Cat - Panther,B,31,,,100,2129,,,,,1,StudyProc5
D_JOL A 2,121,1,BlockProc2,Block2,47,,12,Chop - Cut,F,12,,,5,2824,,,,,1,StudyProc5
D_JOL A 2,121,1,BlockProc2,Block2,48,,22,Car - Windshield,B,22,,,100,2314,,,,,1,StudyProc5
D_JOL A 2,121,1,BlockProc2,Block2,49,,1,Extension - Long,F,1,,,100,3351,,,,,1,StudyProc5
D_JOL A 2,121,1,BlockProc2,Block2,50,,74,Lease - Toil,U,74,,,0,906,,,,,1,StudyProc5
D_JOL A 2,121,1,BlockProc2,Block2,51,,29,Fruit - Strawberry,B,29,,,100,3338,,,,,1,StudyProc5
D_JOL A 2,121,1,BlockProc2,Block2,52,,64,Maze - Election,U,64,,,20,4897,,,,,1,StudyProc5
D_JOL A 2,121,1,BlockProc2,Block2,53,,8,Litter - Trash,F,8,,,100,2854,,,,,1,StudyProc5
D_JOL A 2,121,1,BlockProc2,Block2,54,,4,Shoelace - Tie,F,4,,,100,3324,,,,,1,StudyProc5
D_JOL A 2,121,1,BlockProc2,Block2,55,,60,Sun - Tan,S,60,,,100,2381,,,,,1,StudyProc5
D_JOL A 2,121,1,BlockProc2,Block2,56,,71,Name - Hate,U,71,,,10,2325,,,,,1,StudyProc5
D_JOL A 2,121,1,BlockProc2,Block2,57,,5,Detective - Mystery,F,5,,,5,6583,,,,,1,StudyProc5
D_JOL A 2,121,1,BlockProc2,Block2,58,,53,Truth - Lie,S,53,,,100,2588,,,,,1,StudyProc5
D_JOL A 2,121,1,BlockProc2,Block2,59,,44,Candle - Wax,S,44,,,100,2521,,,,,1,StudyProc5
D_JOL A 2,121,1,BlockProc2,Block2,60,,18,Feud - Fight,F,18,,,100,1841,,,,,1,StudyProc5
D_JOL A 2,121,1,BlockProc2,Block2,61,,2,Clue - Game,F,2,,,0,3765,,,,,1,StudyProc5
D_JOL A 2,121,1,BlockProc2,Block2,62,,39,Sleep - Nap,B,39,,,100,4281,,,,,1,StudyProc5
D_JOL A 2,121,1,BlockProc2,Block2,63,,36,Baseball - League,B,36,,,100,2398,,,,,1,StudyProc5
D_JOL A 2,121,1,BlockProc2,Block2,64,,9,Cherry - Red,F,9,,,100,2725,,,,,1,StudyProc5
D_JOL A 2,121,1,BlockProc2,Block2,65,,7,Furry - Dog,F,7,,,100,2436,,,,,1,StudyProc5
D_JOL A 2,121,1,BlockProc2,Block2,66,,50,Alone - Lonely,S,50,,,90,4225,,,,,1,StudyProc5
D_JOL A 2,121,1,BlockProc2,Block2,67,,30,Best - Favorite,B,30,,,100,2225,,,,,1,StudyProc5
D_JOL A 2,121,1,BlockProc2,Block2,68,,45,Wrist - Bracelet,S,45,,,100,2617,,,,,1,StudyProc5
D_JOL A 2,121,1,BlockProc2,Block2,69,,66,Crackle - Able,U,66,,,10,6453,,,,,1,StudyProc5
D_JOL A 2,121,1,BlockProc2,Block2,70,,27,Even - Revenge,B,27,,,75,3320,,,,,1,StudyProc5
D_JOL A 2,121,1,BlockProc2,Block2,71,,68,Listen - Fiction,U,68,,,75,4502,,,,,1,StudyProc5
D_JOL A 2,121,1,BlockProc2,Block2,72,,15,Incense - Smell,F,15,,,100,3617,,,,,1,StudyProc5
D_JOL A 2,121,1,BlockProc2,Block2,73,,21,Turn - Flip,B,21,,,95,3202,,,,,1,StudyProc5
D_JOL A 2,121,1,BlockProc2,Block2,74,,13,Mule - Donkey,F,13,,,100,2297,,,,,1,StudyProc5
D_JOL A 2,121,1,BlockProc2,Block2,75,,24,Bird - Penguin,B,24,,,100,1280,,,,,1,StudyProc5
D_JOL A 2,121,1,BlockProc2,Block2,76,,62,Stretch - Cloth,U,62,,,100,1560,,,,,1,StudyProc5
D_JOL A 2,121,1,BlockProc2,Block2,77,,35,Fish - Sardine,B,35,,,100,1639,,,,,1,StudyProc5
D_JOL A 2,121,1,BlockProc2,Block2,78,,59,Tantrum - Temper,S,59,,,100,2959,,,,,1,StudyProc5
D_JOL A 2,121,1,BlockProc2,Block2,79,,61,Justice - Maroon,U,61,,,0,1024,,,,,1,StudyProc5
D_JOL A 2,121,1,BlockProc2,Block2,80,,32,Glass - Breakable,B,32,,,10,2576,,,,,1,StudyProc5
D_JOL A 2,121,1,BlockProc2,Block2,81,,80,Charm - Vehicle,U,80,,,5,2742,,,,,1,StudyProc5
D_JOL A 2,121,1,BlockProc2,Block2,82,,17,Shears - Scissors,F,17,,,100,3810,,,,,1,StudyProc5
D_JOL A 2,121,1,BlockProc2,Block2,83,,47,Gone - Away,S,47,,,100,2928,,,,,1,StudyProc5
D_JOL A 2,121,1,BlockProc2,Block2,84,,33,Dead - Coffin,B,33,,,100,1767,,,,,1,StudyProc5
D_JOL A 2,121,1,BlockProc2,Block2,85,,42,Rights - Equal,S,42,,,100,1678,,,,,1,StudyProc5
D_JOL A 2,121,1,BlockProc2,Block2,86,,,Deaf - Hear,,3,,,,,,,,,1,StudyProc6
D_JOL A 2,121,1,BlockProc2,Block2,87,,,Mind - Matter,,2,,,,,,,,,1,StudyProc6
D_JOL A 2,121,1,BlockProc2,Block2,88,,,Magician - Magic,,4,,,,,,,,,1,StudyProc6
D_JOL A 2,121,1,BlockProc2,Block2,89,,,Deciet - Cheat,,1,,,,,,,,,1,StudyProc6
D_JOL A 2,121,1,BlockProc2,Block2,90,,,Contest - Competition,,5,,,,,,,,,1,StudyProc6
D_JOL A 2,121,1,BlockProc2,Block2,91,,,Honest - ?,,38,,,,,,,truthful,5535,1,recallproc2
D_JOL A 2,121,1,BlockProc2,Block2,92,,,Alone - ?,,50,,,,,,,lonely,2368,1,recallproc2
D_JOL A 2,121,1,BlockProc2,Block2,93,,,Meat - ?,,66,,,,,,,ink,5224,1,recallproc2
D_JOL A 2,121,1,BlockProc2,Block2,94,,,Mirror - ?,,79,,,,,,,child,3229,1,recallproc2
D_JOL A 2,121,1,BlockProc2,Block2,95,,,Name - ?,,72,,,,,,,hate,2907,1,recallproc2
D_JOL A 2,121,1,BlockProc2,Block2,96,,,Earth - ?,,49,,,,,,,gound,7782,1,recallproc2
D_JOL A 2,121,1,BlockProc2,Block2,97,,,Mason - ?,,43,,,,,,,jar,1797,1,recallproc2
D_JOL A 2,121,1,BlockProc2,Block2,98,,,Thread - ?,,26,,,,,,,thimble,8316,1,recallproc2
D_JOL A 2,121,1,BlockProc2,Block2,99,,,Adjourn - ?,,6,,,,,,,meet,6478,1,recallproc2
D_JOL A 2,121,1,BlockProc2,Block2,100,,,Element - ?,,46,,,,,,,carbon,3266,1,recallproc2
D_JOL A 2,121,1,BlockProc2,Block2,101,,,Document - ?,,14,,,,,,,paper,1998,1,recallproc2
D_JOL A 2,121,1,BlockProc2,Block2,102,,,Give - ?,,63,,,,,,,take,2286,1,recallproc2
D_JOL A 2,121,1,BlockProc2,Block2,103,,,Temperature - ?,,78,,,,,,,heat,7337,1,recallproc2
D_JOL A 2,121,1,BlockProc2,Block2,104,,,Bird - ?,,24,,,,,,,penguin,6426,1,recallproc2
D_JOL A 2,121,1,BlockProc2,Block2,105,,,Flea - ?,,56,,,,,,,tick,1975,1,recallproc2
D_JOL A 2,121,1,BlockProc2,Block2,106,,,Fuzzy - ?,,73,,,,,,,dog,4079,1,recallproc2
D_JOL A 2,121,1,BlockProc2,Block2,107,,,Shell - ?,,68,,,,,,,snake,2779,1,recallproc2
D_JOL A 2,121,1,BlockProc2,Block2,108,,,Scalp - ?,,10,,,,,,,head,1603,1,recallproc2
D_JOL A 2,121,1,BlockProc2,Block2,109,,,Vehicle - ?,,65,,,,,,,windshield,11681,1,recallproc2
D_JOL A 2,121,1,BlockProc2,Block2,110,,,Keys - ?,,70,,,,,,,lock,2884,1,recallproc2
D_JOL A 2,121,1,BlockProc2,Block2,111,,,Baseball - ?,,36,,,,,,,league,5263,1,recallproc2
D_JOL A 2,121,1,BlockProc2,Block2,112,,,Car - ?,,22,,,,,,,lock,7916,1,recallproc2
D_JOL A 2,121,1,BlockProc2,Block2,113,,,Cherry - ?,,9,,,,,,,red,1782,1,recallproc2
D_JOL A 2,121,1,BlockProc2,Block2,114,,,Chop - ?,,12,,,,,,,cut,2678,1,recallproc2
D_JOL A 2,121,1,BlockProc2,Block2,115,,,Detective - ?,,5,,,,,,,myster,5266,1,recallproc2
D_JOL A 2,121,1,BlockProc2,Block2,116,,,Money - ?,,37,,,,,,,loan,6782,1,recallproc2
D_JOL A 2,121,1,BlockProc2,Block2,117,,,Razor - ?,,41,,,,,,,shave,1965,1,recallproc2
D_JOL A 2,121,1,BlockProc2,Block2,118,,,Water,,48,,,,,,,drink,6686,1,recallproc2
D_JOL A 2,121,1,BlockProc2,Block2,119,,,Loud - ?,,57,,,,,,,noise,2041,1,recallproc2
D_JOL A 2,121,1,BlockProc2,Block2,120,,,Sleep - ?,,39,,,,,,,nap,2414,1,recallproc2
D_JOL A 2,121,1,BlockProc2,Block2,121,,,Cake - ?,,71,,,,,,,cookie,6485,1,recallproc2
D_JOL A 2,121,1,BlockProc2,Block2,122,,,Maze - ?,,64,,,,,,,math,11064,1,recallproc2
D_JOL A 2,121,1,BlockProc2,Block2,123,,,Chill - ?,,19,,,,,,,cold,2515,1,recallproc2
D_JOL A 2,121,1,BlockProc2,Block2,124,,,Shears - ?,,17,,,,,,,scissors,2862,1,recallproc2
D_JOL A 2,121,1,BlockProc2,Block2,125,,,Clue - ?,,2,,,,,,,hide,3218,1,recallproc2
D_JOL A 2,121,1,BlockProc2,Block2,126,,,Feud - ?,,18,,,,,,,fight,2576,1,recallproc2
D_JOL A 2,121,1,BlockProc2,Block2,127,,,Extension - ?,,1,,,,,,,long,1872,1,recallproc2
D_JOL A 2,121,1,BlockProc2,Block2,128,,,Litter - ?,,8,,,,,,,trash,2188,1,recallproc2
D_JOL A 2,121,1,BlockProc2,Block2,129,,,Rights - ?,,42,,,,,,,equal,5403,1,recallproc2
D_JOL A 2,121,1,BlockProc2,Block2,130,,,Candle - ?,,44,,,,,,,wax,1777,1,recallproc2
D_JOL A 2,121,1,BlockProc2,Block2,131,,,Driver - ?,,11,,,,,,,car,4545,1,recallproc2
D_JOL A 2,121,1,BlockProc2,Block2,132,,,Affection - ?,,20,,,,,,,love,1842,1,recallproc2
D_JOL A 2,121,1,BlockProc2,Block2,133,,,Sun - ?,,60,,,,,,,t,4264,1,recallproc2
D_JOL A 2,121,1,BlockProc2,Block2,134,,,Phone - ?,,54,,,,,,,communication,6500,1,recallproc2
D_JOL A 2,121,1,BlockProc2,Block2,135,,,Tantrum - ?,,59,,,,,,,temper,4279,1,recallproc2
D_JOL A 2,121,1,BlockProc2,Block2,136,,,Glass - ?,,32,,,,,,,breakable,3219,1,recallproc2
D_JOL A 2,121,1,BlockProc2,Block2,137,,,Cactus - ?,,3,,,,,,,plant,3208,1,recallproc2
D_JOL A 2,121,1,BlockProc2,Block2,138,,,Main - ?,,80,,,,,,,out,4095,1,recallproc2
D_JOL A 2,121,1,BlockProc2,Block2,139,,,Crackle - ?,,67,,,,,,,tackle,6866,1,recallproc2
D_JOL A 2,121,1,BlockProc2,Block2,140,,,Turn - ?,,21,,,,,,,flip,2166,1,recallproc2
D_JOL A 2,121,1,BlockProc2,Block2,141,,,Gone - ?,,47,,,,,,,away,2263,1,recallproc2
D_JOL A 2,121,1,BlockProc2,Block2,142,,,Even - ?,,27,,,,,,,enough,7475,1,recallproc2
D_JOL A 2,121,1,BlockProc2,Block2,143,,,Incense - ?,,15,,,,,,,smell,1959,1,recallproc2
D_JOL A 2,121,1,BlockProc2,Block2,144,,,Fish - ?,,35,,,,,,,sardine,2887,1,recallproc2
D_JOL A 2,121,1,BlockProc2,Block2,145,,,Shoelace - ?,,4,,,,,,,tie,1850,1,recallproc2
D_JOL A 2,121,1,BlockProc2,Block2,146,,,Pop - ?,,28,,,,,,,balloon,3991,1,recallproc2
D_JOL A 2,121,1,BlockProc2,Block2,147,,,Listen - ?,,69,,,,,,,hear,4143,1,recallproc2
D_JOL A 2,121,1,BlockProc2,Block2,148,,,Fruit - ?,,29,,,,,,,strawberry,5256,1,recallproc2
D_JOL A 2,121,1,BlockProc2,Block2,149,,,Cat - ?,,31,,,,,,,lion,2900,1,recallproc2
D_JOL A 2,121,1,BlockProc2,Block2,150,,,Wrist - ?,,45,,,,,,,bracelet,3087,1,recallproc2
D_JOL A 2,121,1,BlockProc2,Block2,151,,,Mule - ?,,13,,,,,,,donkey,2578,1,recallproc2
D_JOL A 2,121,1,BlockProc2,Block2,152,,,Truth - ?,,53,,,,,,,honest,3226,1,recallproc2
D_JOL A 2,121,1,BlockProc2,Block2,153,,,Lease - ?,,75,,,,,,,wire,5512,1,recallproc2
D_JOL A 2,121,1,BlockProc2,Block2,154,,,Stretch - ?,,62,,,,,,,cloth,3714,1,recallproc2
D_JOL A 2,121,1,BlockProc2,Block2,155,,,Both - ?,,77,,,,,,,even,4236,1,recallproc2
D_JOL A 2,121,1,BlockProc2,Block2,156,,,Plane - ?,,34,,,,,,,aircraft,4274,1,recallproc2
D_JOL A 2,121,1,BlockProc2,Block2,157,,,Rod - ?,,55,,,,,,,steel,6253,1,recallproc2
D_JOL A 2,121,1,BlockProc2,Block2,158,,,Best - ?,,30,,,,,,,favorite,6553,1,recallproc2
D_JOL A 2,121,1,BlockProc2,Block2,159,,,Dead - ?,,33,,,,,,,coffin,3922,1,recallproc2
D_JOL A 2,121,1,BlockProc2,Block2,160,,,Moat - ?,,74,,,,,,,clea,6139,1,recallproc2
D_JOL A 2,121,1,BlockProc2,Block2,161,,,Star - ?,,25,,,,,,,sky,4796,1,recallproc2
D_JOL A 2,121,1,BlockProc2,Block2,162,,,Own - ?,,58,,,,,,,have,2651,1,recallproc2
D_JOL A 2,121,1,BlockProc2,Block2,163,,,Dry - ?,,51,,,,,,,wet,1752,1,recallproc2
D_JOL A 2,121,1,BlockProc2,Block2,164,,,Furry - ?,,7,,,,,,,fur,9616,1,recallproc2
D_JOL A 2,121,1,BlockProc2,Block2,165,,,Justice - ?,,61,,,,,,,maroon,6814,1,recallproc2
D_JOL A 2,121,1,BlockProc2,Block2,166,,,Loan - ?,,76,,,,,,,lend,2077,1,recallproc2
D_JOL A 2,121,1,BlockProc2,Block2,167,,,Bad - ?,,23,,,,,,,good,4217,1,recallproc2
D_JOL A 2,121,1,BlockProc2,Block2,168,,,Safety - ?,,52,,,,,,,seatbelt,6071,1,recallproc2
D_JOL A 2,121,1,BlockProc2,Block2,169,,,Fight - ?,,40,,,,,,,brawl,3867,1,recallproc2
D_JOL A 2,121,1,BlockProc2,Block2,170,,,Dine - ?,,16,,,,,,,eat,3055,1,recallproc2
D_JOL A 2,125,1,BlockProc1,Block1,1,,,Member - Group,,5,,,,,,,,,1,StudyProc1
D_JOL A 2,125,1,BlockProc1,Block1,2,,,Haircut-Scissors,,1,,,,,,,,,1,StudyProc1
D_JOL A 2,125,1,BlockProc1,Block1,3,,,Curtain - Drapes,,2,,,,,,,,,1,StudyProc1
D_JOL A 2,125,1,BlockProc1,Block1,4,,,Shrimp - Fish,,4,,,,,,,,,1,StudyProc1
D_JOL A 2,125,1,BlockProc1,Block1,5,,,Snow - Ice,,3,,,,,,,,,1,StudyProc1
D_JOL A 2,125,1,BlockProc1,Block1,6,23,,Dark - Cave,B,23,87,6054,,,,,,,1,StudyProc3
D_JOL A 2,125,1,BlockProc1,Block1,7,51,,Pop - Soda,S,51,67,5102,,,,,,,1,StudyProc3
D_JOL A 2,125,1,BlockProc1,Block1,8,50,,Blow - Wind,S,50,80,5967,,,,,,,1,StudyProc3
D_JOL A 2,125,1,BlockProc1,Block1,9,35,,Hunger - Famine,B,35,78,9229,,,,,,,1,StudyProc3
D_JOL A 2,125,1,BlockProc1,Block1,10,27,,Bug - Wasp,B,27,87,4766,,,,,,,1,StudyProc3
D_JOL A 2,125,1,BlockProc1,Block1,11,8,,Root - Plant,F,8,43,2586,,,,,,,1,StudyProc3
D_JOL A 2,125,1,BlockProc1,Block1,12,34,,Work - Chore,B,34,67,3467,,,,,,,1,StudyProc3
D_JOL A 2,125,1,BlockProc1,Block1,13,60,,Circle - Round,S,60,84,3594,,,,,,,1,StudyProc3
D_JOL A 2,125,1,BlockProc1,Block1,14,69,,Artery - Bronze,U,69,90,3771,,,,,,,1,StudyProc3
D_JOL A 2,125,1,BlockProc1,Block1,15,62,,Dietary - Sacking,U,62,35,2400,,,,,,,1,StudyProc3
D_JOL A 2,125,1,BlockProc1,Block1,16,16,,Discussion - Talk,F,16,78,3045,,,,,,,1,StudyProc3
D_JOL A 2,125,1,BlockProc1,Block1,17,24,,Take - Seize,B,24,97,4013,,,,,,,1,StudyProc3
D_JOL A 2,125,1,BlockProc1,Block1,18,65,,Soon - Belt,U,65,54,5021,,,,,,,1,StudyProc3
D_JOL A 2,125,1,BlockProc1,Block1,19,38,,Clothes - Attire,B,38,65,4388,,,,,,,1,StudyProc3
D_JOL A 2,125,1,BlockProc1,Block1,20,71,,Machine - Position,U,71,34,4392,,,,,,,1,StudyProc3
D_JOL A 2,125,1,BlockProc1,Block1,21,40,,Fire - Blaze,B,40,100,1928,,,,,,,1,StudyProc3
D_JOL A 2,125,1,BlockProc1,Block1,22,20,,Tuna -  Fish,F,20,98,3180,,,,,,,1,StudyProc3
D_JOL A 2,125,1,BlockProc1,Block1,23,12,,Hygiene - Clean,F,12,62,3375,,,,,,,1,StudyProc3
D_JOL A 2,125,1,BlockProc1,Block1,24,14,,Geology - Rock,F,14,43,2398,,,,,,,1,StudyProc3
D_JOL A 2,125,1,BlockProc1,Block1,25,54,,Choice - Decision,S,54,76,3862,,,,,,,1,StudyProc3
D_JOL A 2,125,1,BlockProc1,Block1,26,64,,Lift - Woman,U,64,65,2329,,,,,,,1,StudyProc3
D_JOL A 2,125,1,BlockProc1,Block1,27,22,,Drink - Sip,B,22,100,2627,,,,,,,1,StudyProc3
D_JOL A 2,125,1,BlockProc1,Block1,28,39,,Plane - Pilot,B,39,98,4414,,,,,,,1,StudyProc3
D_JOL A 2,125,1,BlockProc1,Block1,29,30,,Great - Fantastic,B,30,45,5140,,,,,,,1,StudyProc3
D_JOL A 2,125,1,BlockProc1,Block1,30,15,,Revolution - War,F,15,65,2477,,,,,,,1,StudyProc3
D_JOL A 2,125,1,BlockProc1,Block1,31,79,,Hide - Sick,U,79,77,1739,,,,,,,1,StudyProc3
D_JOL A 2,125,1,BlockProc1,Block1,32,18,,Credit - Card,F,18,87,4398,,,,,,,1,StudyProc3
D_JOL A 2,125,1,BlockProc1,Block1,33,78,,Cash - Would,U,78,54,4709,,,,,,,1,StudyProc3
D_JOL A 2,125,1,BlockProc1,Block1,34,26,,Sentence - Word,B,26,87,3089,,,,,,,1,StudyProc3
D_JOL A 2,125,1,BlockProc1,Block1,35,46,,Architecture - Design,S,46,79,3420,,,,,,,1,StudyProc3
D_JOL A 2,125,1,BlockProc1,Block1,36,10,,Paw - Dog,F,10,78,7817,,,,,,,1,StudyProc3
D_JOL A 2,125,1,BlockProc1,Block1,37,25,,Height - Growth,B,25,25,12936,,,,,,,1,StudyProc3
D_JOL A 2,125,1,BlockProc1,Block1,38,19,,Orchid - Flower,F,19,76,3200,,,,,,,1,StudyProc3
D_JOL A 2,125,1,BlockProc1,Block1,39,31,,Key - Latch,B,31,56,3471,,,,,,,1,StudyProc3
D_JOL A 2,125,1,BlockProc1,Block1,40,56,,Past - Future,S,57,100,1541,,,,,,,1,StudyProc3
D_JOL A 2,125,1,BlockProc1,Block1,41,33,,Ball - Racket,B,33,62,3204,,,,,,,1,StudyProc3
D_JOL A 2,125,1,BlockProc1,Block1,42,66,,Discover - Floor,U,66,32,3010,,,,,,,1,StudyProc3
D_JOL A 2,125,1,BlockProc1,Block1,43,76,,Sugar - Riddle,U,76,67,2506,,,,,,,1,StudyProc3
D_JOL A 2,125,1,BlockProc1,Block1,44,59,,Baby - Child,S,59,82,6627,,,,,,,1,StudyProc3
D_JOL A 2,125,1,BlockProc1,Block1,45,7,,Bitter - Cold,F,7,34,3602,,,,,,,1,StudyProc3
D_JOL A 2,125,1,BlockProc1,Block1,46,41,,Due - Assignment,S,41,13,3330,,,,,,,1,StudyProc3
D_JOL A 2,125,1,BlockProc1,Block1,47,61,,Pusher - Clutter,U,61,72,2996,,,,,,,1,StudyProc3
D_JOL A 2,125,1,BlockProc1,Block1,48,47,,Grill -Bar,S,47,63,2124,,,,,,,1,StudyProc3
D_JOL A 2,125,1,BlockProc1,Block1,49,29,,Law - Attorney,B,29,100,4769,,,,,,,1,StudyProc3
D_JOL A 2,125,1,BlockProc1,Block1,50,52,,Wine - Cheese,S,52,73,2346,,,,,,,1,StudyProc3
D_JOL A 2,125,1,BlockProc1,Block1,51,42,,Number - Amount,S,42,45,2358,,,,,,,1,StudyProc3
D_JOL A 2,125,1,BlockProc1,Block1,52,17,,Herd - Cow,F,17,75,3579,,,,,,,1,StudyProc3
D_JOL A 2,125,1,BlockProc1,Block1,53,4,,Chisel - Hammer,F,4,83,1544,,,,,,,1,StudyProc3
D_JOL A 2,125,1,BlockProc1,Block1,54,5,,Editor - News,F,5,63,3483,,,,,,,1,StudyProc3
D_JOL A 2,125,1,BlockProc1,Block1,55,9,,Swan - Bird,F,9,76,2084,,,,,,,1,StudyProc3
D_JOL A 2,125,1,BlockProc1,Block1,56,2,,Digestion - Stomach,F,2,100,2142,,,,,,,1,StudyProc3
D_JOL A 2,125,1,BlockProc1,Block1,57,72,,Happy - Car,U,72,45,10269,,,,,,,1,StudyProc3
D_JOL A 2,125,1,BlockProc1,Block1,58,70,,Fix - Hand,U,70,0,8724,,,,,,,1,StudyProc3
D_JOL A 2,125,1,BlockProc1,Block1,59,48,,Kidney - Liver,S,48,67,2874,,,,,,,1,StudyProc3
D_JOL A 2,125,1,BlockProc1,Block1,60,36,,Sleep - Drowsy,B,36,45,2615,,,,,,,1,StudyProc3
D_JOL A 2,125,1,BlockProc1,Block1,61,21,,Full - Enough,B,21,100,3146,,,,,,,1,StudyProc3
D_JOL A 2,125,1,BlockProc1,Block1,62,55,,Shoe - Foot,S,55,90,2595,,,,,,,1,StudyProc3
D_JOL A 2,125,1,BlockProc1,Block1,63,73,,Allow - Tuck,U,73,53,3625,,,,,,,1,StudyProc3
D_JOL A 2,125,1,BlockProc1,Block1,64,75,,Strong - Accident,U,75,0,2845,,,,,,,1,StudyProc3
D_JOL A 2,125,1,BlockProc1,Block1,65,6,,Hornet - Sting,F,6,98,3162,,,,,,,1,StudyProc3
D_JOL A 2,125,1,BlockProc1,Block1,66,28,,Math - Division,B,28,65,2251,,,,,,,1,StudyProc3
D_JOL A 2,125,1,BlockProc1,Block1,67,77,,Valley - Add,U,77,65,5919,,,,,,,1,StudyProc3
D_JOL A 2,125,1,BlockProc1,Block1,68,43,,Location - Site,S,43,100,1500,,,,,,,1,StudyProc3
D_JOL A 2,125,1,BlockProc1,Block1,69,44,,Dump - Waste,S,44,23,1991,,,,,,,1,StudyProc3
D_JOL A 2,125,1,BlockProc1,Block1,70,74,,Art - Lion,U,74,87,2455,,,,,,,1,StudyProc3
D_JOL A 2,125,1,BlockProc1,Block1,71,3,,Wage - Money,F,3,98,1706,,,,,,,1,StudyProc3
D_JOL A 2,125,1,BlockProc1,Block1,72,13,,Bridge - Water,F,13,76,2259,,,,,,,1,StudyProc3
D_JOL A 2,125,1,BlockProc1,Block1,73,49,,Begin - End,S,49,100,3312,,,,,,,1,StudyProc3
D_JOL A 2,125,1,BlockProc1,Block1,74,67,,Death - Business,U,67,0,1218,,,,,,,1,StudyProc3
D_JOL A 2,125,1,BlockProc1,Block1,75,32,,Hot - Chili,B,32,98,1992,,,,,,,1,StudyProc3
D_JOL A 2,125,1,BlockProc1,Block1,76,37,,Smell - Stench,B,37,34,4129,,,,,,,1,StudyProc3
D_JOL A 2,125,1,BlockProc1,Block1,77,63,,Park - Hungry,U,63,87,2704,,,,,,,1,StudyProc3
D_JOL A 2,125,1,BlockProc1,Block1,78,11,,Way - Out,F,11,98,1774,,,,,,,1,StudyProc3
D_JOL A 2,125,1,BlockProc1,Block1,79,68,,Debate - Sight,U,68,76,2783,,,,,,,1,StudyProc3
D_JOL A 2,125,1,BlockProc1,Block1,80,53,,Bathroom - Toilet,S,53,98,5534,,,,,,,1,StudyProc3
D_JOL A 2,125,1,BlockProc1,Block1,81,45,,Trial - Jury,S,45,98,2419,,,,,,,1,StudyProc3
D_JOL A 2,125,1,BlockProc1,Block1,82,80,,King - Vase,U,80,23,1196,,,,,,,1,StudyProc3
D_JOL A 2,125,1,BlockProc1,Block1,83,58,,Honey - Bee,S,58,87,2396,,,,,,,1,StudyProc3
D_JOL A 2,125,1,BlockProc1,Block1,84,1,,Delinquent - Bad,F,1,98,1652,,,,,,,1,StudyProc3
D_JOL A 2,125,1,BlockProc1,Block1,85,57,,Lettuce - Salad,S,56,87,1731,,,,,,,1,StudyProc3
D_JOL A 2,125,1,BlockProc1,Block1,86,,,Catcher - Baseball,,4,,,,,,,,,1,StudyProc2
D_JOL A 2,125,1,BlockProc1,Block1,87,,,Trees - Green,,5,,,,,,,,,1,StudyProc2
D_JOL A 2,125,1,BlockProc1,Block1,88,,,Grab - Take,,2,,,,,,,,,1,StudyProc2
D_JOL A 2,125,1,BlockProc1,Block1,89,,,Friendliness - Nice,,3,,,,,,,,,1,StudyProc2
D_JOL A 2,125,1,BlockProc1,Block1,90,,,Geese - Goose,,1,,,,,,,,,1,StudyProc2
D_JOL A 2,125,1,BlockProc1,Block1,91,,,Park - ?,,63,,,,,hungry,8115,,,1,recallproc1
D_JOL A 2,125,1,BlockProc1,Block1,92,,,Bathroom - ?,,53,,,,,floor,3029,,,1,recallproc1
D_JOL A 2,125,1,BlockProc1,Block1,93,,,Dark - ?,,23,,,,,cave,3307,,,1,recallproc1
D_JOL A 2,125,1,BlockProc1,Block1,94,,,Art - ?,,74,,,,,dance,8118,,,1,recallproc1
D_JOL A 2,125,1,BlockProc1,Block1,95,,,Hornet - ?,,6,,,,,sting,5399,,,1,recallproc1
D_JOL A 2,125,1,BlockProc1,Block1,96,,,Valley - ?,,77,,,,,art,2494,,,1,recallproc1
D_JOL A 2,125,1,BlockProc1,Block1,97,,,Tuna - ?,,20,,,,,fish,4257,,,1,recallproc1
D_JOL A 2,125,1,BlockProc1,Block1,98,,,Geology - ?,,14,,,,,rock,2062,,,1,recallproc1
D_JOL A 2,125,1,BlockProc1,Block1,99,,,Fix - ?,,70,,,,,hammer,6578,,,1,recallproc1
D_JOL A 2,125,1,BlockProc1,Block1,100,,,Death - ?,,67,,,,,arm,28106,,,1,recallproc1
D_JOL A 2,125,1,BlockProc1,Block1,101,,,Hunger - ?,,35,,,,,famine,3610,,,1,recallproc1
D_JOL A 2,125,1,BlockProc1,Block1,102,,,Cash - ?,,78,,,,,money,24617,,,1,recallproc1
D_JOL A 2,125,1,BlockProc1,Block1,103,,,Law - ?,,29,,,,,attorney,3302,,,1,recallproc1
D_JOL A 2,125,1,BlockProc1,Block1,104,,,Hide - ?,,79,,,,,stack,14256,,,1,recallproc1
D_JOL A 2,125,1,BlockProc1,Block1,105,,,Dump - ?,,44,,,,,waste,2036,,,1,recallproc1
D_JOL A 2,125,1,BlockProc1,Block1,106,,,Choice - ?,,54,,,,,decision,3097,,,1,recallproc1
D_JOL A 2,125,1,BlockProc1,Block1,107,,,Discussion - ?,,16,,,,,tal,3636,,,1,recallproc1
D_JOL A 2,125,1,BlockProc1,Block1,108,,,Great - ?,,30,,,,,old,4137,,,1,recallproc1
D_JOL A 2,125,1,BlockProc1,Block1,109,,,Baby - ?,,59,,,,,child,2219,,,1,recallproc1
D_JOL A 2,125,1,BlockProc1,Block1,110,,,Shoe - ?,,55,,,,,foot,3160,,,1,recallproc1
D_JOL A 2,125,1,BlockProc1,Block1,111,,,Height - ?,,25,,,,,growth,7129,,,1,recallproc1
D_JOL A 2,125,1,BlockProc1,Block1,112,,,Blow - ?,,50,,,,,wind,2298,,,1,recallproc1
D_JOL A 2,125,1,BlockProc1,Block1,113,,,Sugar - ?,,76,,,,,spice,6590,,,1,recallproc1
D_JOL A 2,125,1,BlockProc1,Block1,114,,,Take - ?,,24,,,,,grasp,16340,,,1,recallproc1
D_JOL A 2,125,1,BlockProc1,Block1,115,,,Delinquent - ?,,1,,,,,bad,9365,,,1,recallproc1
D_JOL A 2,125,1,BlockProc1,Block1,116,,,Grill - ?,,47,,,,,food,8901,,,1,recallproc1
D_JOL A 2,125,1,BlockProc1,Block1,117,,,Bitter - ?,,7,,,,,sweet,3439,,,1,recallproc1
D_JOL A 2,125,1,BlockProc1,Block1,118,,,Revolution - ?,,15,,,,,war,1749,,,1,recallproc1
D_JOL A 2,125,1,BlockProc1,Block1,119,,,Work - ?,,34,,,,,flow,3582,,,1,recallproc1
D_JOL A 2,125,1,BlockProc1,Block1,120,,,Plane - ?,,39,,,,,pilot,6662,,,1,recallproc1
D_JOL A 2,125,1,BlockProc1,Block1,121,,,Number - ?,,42,,,,,score,6482,,,1,recallproc1
D_JOL A 2,125,1,BlockProc1,Block1,122,,,Wine - ?,,52,,,,,cheese,2525,,,1,recallproc1
D_JOL A 2,125,1,BlockProc1,Block1,123,,,Drink - ?,,22,,,,,,6615,,,1,recallproc1
D_JOL A 2,125,1,BlockProc1,Block1,124,,,Sleep - ?,,36,,,,,,10381,,,1,recallproc1
D_JOL A 2,125,1,BlockProc1,Block1,125,,,Full - ?,,21,,,,,eaten,18317,,,1,recallproc1
D_JOL A 2,125,1,BlockProc1,Block1,126,,,Allow - ?,,73,,,,,,5558,,,1,recallproc1
D_JOL A 2,125,1,BlockProc1,Block1,127,,,Credit - ?,,18,,,,,card,2350,,,1,recallproc1
D_JOL A 2,125,1,BlockProc1,Block1,128,,,Soon - ?,,65,,,,,,2144,,,1,recallproc1
D_JOL A 2,125,1,BlockProc1,Block1,129,,,Strong - ?,,75,,,,,,1033,,,1,recallproc1
D_JOL A 2,125,1,BlockProc1,Block1,130,,,Bug - ?,,27,,,,,wasp,2735,,,1,recallproc1
D_JOL A 2,125,1,BlockProc1,Block1,131,,,Bridge - ?,,13,,,,,water,2256,,,1,recallproc1
D_JOL A 2,125,1,BlockProc1,Block1,132,,,Hygiene - ?,,12,,,,,clean,2412,,,1,recallproc1
D_JOL A 2,125,1,BlockProc1,Block1,133,,,Fire - ?,,40,,,,,smoke,11539,,,1,recallproc1
D_JOL A 2,125,1,BlockProc1,Block1,134,,,Location - ?,,43,,,,,,6843,,,1,recallproc1
D_JOL A 2,125,1,BlockProc1,Block1,135,,,Kidney - ?,,48,,,,,liver,2600,,,1,recallproc1
D_JOL A 2,125,1,BlockProc1,Block1,136,,,Swan - ?,,9,,,,,bird,4679,,,1,recallproc1
D_JOL A 2,125,1,BlockProc1,Block1,137,,,Lettuce - ?,,56,,,,,salad,2307,,,1,recallproc1
D_JOL A 2,125,1,BlockProc1,Block1,138,,,Honey - ?,,58,,,,,bee,1646,,,1,recallproc1
D_JOL A 2,125,1,BlockProc1,Block1,139,,,Machine - ?,,71,,,,,death,5451,,,1,recallproc1
D_JOL A 2,125,1,BlockProc1,Block1,140,,,Trial - ?,,45,,,,,jury,1880,,,1,recallproc1
D_JOL A 2,125,1,BlockProc1,Block1,141,,,Pop - ?,,51,,,,,soda,4244,,,1,recallproc1
D_JOL A 2,125,1,BlockProc1,Block1,142,,,Due - ?,,41,,,,,date,3073,,,1,recallproc1
D_JOL A 2,125,1,BlockProc1,Block1,143,,,Happy - ?,,72,,,,,sad,3565,,,1,recallproc1
D_JOL A 2,125,1,BlockProc1,Block1,144,,,Paw - ?,,10,,,,,dog,2101,,,1,recallproc1
D_JOL A 2,125,1,BlockProc1,Block1,145,,,Editor - ?,,5,,,,,newspaper,3768,,,1,recallproc1
D_JOL A 2,125,1,BlockProc1,Block1,146,,,Begin - ?,,49,,,,,end,1520,,,1,recallproc1
D_JOL A 2,125,1,BlockProc1,Block1,147,,,Herd - ?,,17,,,,,cow,2266,,,1,recallproc1
D_JOL A 2,125,1,BlockProc1,Block1,148,,,Past - ?,,57,,,,,future,4054,,,1,recallproc1
D_JOL A 2,125,1,BlockProc1,Block1,149,,,Root - ?,,8,,,,,plant,4747,,,1,recallproc1
D_JOL A 2,125,1,BlockProc1,Block1,150,,,Key - ?,,31,,,,,latch,2652,,,1,recallproc1
D_JOL A 2,125,1,BlockProc1,Block1,151,,,Architecture - ?,,46,,,,,design,4056,,,1,recallproc1
D_JOL A 2,125,1,BlockProc1,Block1,152,,,Smell - ?,,37,,,,,stinch,2501,,,1,recallproc1
D_JOL A 2,125,1,BlockProc1,Block1,153,,,Artery - ?,,69,,,,,bronze,3784,,,1,recallproc1
D_JOL A 2,125,1,BlockProc1,Block1,154,,,Chisel - ?,,4,,,,,hammer,2840,,,1,recallproc1
D_JOL A 2,125,1,BlockProc1,Block1,155,,,Hot - ?,,32,,,,,warm,3933,,,1,recallproc1
D_JOL A 2,125,1,BlockProc1,Block1,156,,,Clothes - ?,,38,,,,,dresser,4942,,,1,recallproc1
D_JOL A 2,125,1,BlockProc1,Block1,157,,,Math - ?,,28,,,,,division,4551,,,1,recallproc1
D_JOL A 2,125,1,BlockProc1,Block1,158,,,Discover - ?,,66,,,,,find,2824,,,1,recallproc1
D_JOL A 2,125,1,BlockProc1,Block1,159,,,Digestion - ?,,2,,,,,,6582,,,1,recallproc1
D_JOL A 2,125,1,BlockProc1,Block1,160,,,Ball - ?,,33,,,,,base,10685,,,1,recallproc1
D_JOL A 2,125,1,BlockProc1,Block1,161,,,Circle - ?,,60,,,,,oval,19400,,,1,recallproc1
D_JOL A 2,125,1,BlockProc1,Block1,162,,,Lift - ?,,64,,,,,drag,5310,,,1,recallproc1
D_JOL A 2,125,1,BlockProc1,Block1,163,,,King - ?,,80,,,,,queen,8120,,,1,recallproc1
D_JOL A 2,125,1,BlockProc1,Block1,164,,,Wage - ?,,3,,,,,money,2298,,,1,recallproc1
D_JOL A 2,125,1,BlockProc1,Block1,165,,,Pusher - ?,,61,,,,,weight,12397,,,1,recallproc1
D_JOL A 2,125,1,BlockProc1,Block1,166,,,Dietary - ?,,62,,,,,,3363,,,1,recallproc1
D_JOL A 2,125,1,BlockProc1,Block1,167,,,Way - ?,,11,,,,,path,2908,,,1,recallproc1
D_JOL A 2,125,1,BlockProc1,Block1,168,,,Debate - ?,,68,,,,,sight,4838,,,1,recallproc1
D_JOL A 2,125,1,BlockProc1,Block1,169,,,Sentence - ?,,26,,,,,lamb,5035,,,1,recallproc1
D_JOL A 2,125,1,BlockProc1,Block1,170,,,Orchid - ?,,19,,,,,flower,2424,,,1,recallproc1
D_JOL A 2,125,1,BlockProc2,Block2,1,,,Disintegrate - Disappear,,3,,,,,,,,,1,StudyProc4
D_JOL A 2,125,1,BlockProc2,Block2,2,,,Essay - Write,,4,,,,,,,,,1,StudyProc4
D_JOL A 2,125,1,BlockProc2,Block2,3,,,Hide - Scare,,2,,,,,,,,,1,StudyProc4
D_JOL A 2,125,1,BlockProc2,Block2,4,,,Sheriff - Police,,1,,,,,,,,,1,StudyProc4
D_JOL A 2,125,1,BlockProc2,Block2,5,,,Malt - Chocolate,,5,,,,,,,,,1,StudyProc4
D_JOL A 2,125,1,BlockProc2,Block2,6,,1,Extension - Long,F,1,,,45,1391,,,,,1,StudyProc5
D_JOL A 2,125,1,BlockProc2,Block2,7,,77,Temperature - Morning,U,77,,,,5767,,,,,1,StudyProc5
D_JOL A 2,125,1,BlockProc2,Block2,8,,29,Fruit - Strawberry,B,29,,,23,3636,,,,,1,StudyProc5
D_JOL A 2,125,1,BlockProc2,Block2,9,,51,Dry - Wet,S,51,,,76,928,,,,,1,StudyProc5
D_JOL A 2,125,1,BlockProc2,Block2,10,,35,Fish - Sardine,B,35,,,,2376,,,,,1,StudyProc5
D_JOL A 2,125,1,BlockProc2,Block2,11,,18,Feud - Fight,F,18,,,54,1936,,,,,1,StudyProc5
D_JOL A 2,125,1,BlockProc2,Block2,12,,65,Meat - Obtain,U,65,,,76,2509,,,,,1,StudyProc5
D_JOL A 2,125,1,BlockProc2,Block2,13,,22,Car - Windshield,B,22,,,76,4370,,,,,1,StudyProc5
D_JOL A 2,125,1,BlockProc2,Block2,14,,12,Chop - Cut,F,12,,,76,2150,,,,,1,StudyProc5
D_JOL A 2,125,1,BlockProc2,Block2,15,,80,Charm - Vehicle,U,80,,,,1155,,,,,1,StudyProc5
D_JOL A 2,125,1,BlockProc2,Block2,16,,5,Detective - Mystery,F,5,,,,2498,,,,,1,StudyProc5
D_JOL A 2,125,1,BlockProc2,Block2,17,,79,Main - Scar,U,79,,,54,3723,,,,,1,StudyProc5
D_JOL A 2,125,1,BlockProc2,Block2,18,,31,Cat - Panther,B,31,,,,1745,,,,,1,StudyProc5
D_JOL A 2,125,1,BlockProc2,Block2,19,,3,Cactus - Plant,F,3,,,,908,,,,,1,StudyProc5
D_JOL A 2,125,1,BlockProc2,Block2,20,,38,Honest - Truthful,B,38,,,54,2033,,,,,1,StudyProc5
D_JOL A 2,125,1,BlockProc2,Block2,21,,28,Pop - Balloon,B,28,,,87,2899,,,,,1,StudyProc5
D_JOL A 2,125,1,BlockProc2,Block2,22,,63,Give - Steak,U,63,,,,631,,,,,1,StudyProc5
D_JOL A 2,125,1,BlockProc2,Block2,23,,34,Plane - Aircraft,B,34,,,3,1233,,,,,1,StudyProc5
D_JOL A 2,125,1,BlockProc2,Block2,24,,53,Truth - Lie,S,53,,,74,2094,,,,,1,StudyProc5
D_JOL A 2,125,1,BlockProc2,Block2,25,,47,Gone - Away,S,47,,,4,1219,,,,,1,StudyProc5
D_JOL A 2,125,1,BlockProc2,Block2,26,,15,Incense - Smell,F,15,,,84,1583,,,,,1,StudyProc5
D_JOL A 2,125,1,BlockProc2,Block2,27,,55,Rod - Reel,S,55,,,,1146,,,,,1,StudyProc5
D_JOL A 2,125,1,BlockProc2,Block2,28,,6,Adjourn - End,F,6,,,34,2279,,,,,1,StudyProc5
D_JOL A 2,125,1,BlockProc2,Block2,29,,26,Thread - Thimble,B,26,,,54,2483,,,,,1,StudyProc5
D_JOL A 2,125,1,BlockProc2,Block2,30,,11,Driver - Car,F,11,,,43,1542,,,,,1,StudyProc5
D_JOL A 2,125,1,BlockProc2,Block2,31,,25,Star - Actress,B,25,,,32,1555,,,,,1,StudyProc5
D_JOL A 2,125,1,BlockProc2,Block2,32,,23,Bad - Villain,B,23,,,32,2088,,,,,1,StudyProc5
D_JOL A 2,125,1,BlockProc2,Block2,33,,73,Moat - Clear,U,73,,,32,2810,,,,,1,StudyProc5
D_JOL A 2,125,1,BlockProc2,Block2,34,,33,Dead - Coffin,B,33,,,87,2290,,,,,1,StudyProc5
D_JOL A 2,125,1,BlockProc2,Block2,35,,36,Baseball - League,B,36,,,43,2370,,,,,1,StudyProc5
D_JOL A 2,125,1,BlockProc2,Block2,36,,4,Shoelace - Tie,F,4,,,12,856,,,,,1,StudyProc5
D_JOL A 2,125,1,BlockProc2,Block2,37,,78,Mirror - Children,U,78,,,53,1842,,,,,1,StudyProc5
D_JOL A 2,125,1,BlockProc2,Block2,38,,57,Loud - Noise,S,57,,,65,1871,,,,,1,StudyProc5
D_JOL A 2,125,1,BlockProc2,Block2,39,,20,Affection - Love,F,20,,,23,1770,,,,,1,StudyProc5
D_JOL A 2,125,1,BlockProc2,Block2,40,,16,Dine - Eat,F,16,,,12,1701,,,,,1,StudyProc5
D_JOL A 2,125,1,BlockProc2,Block2,41,,24,Bird - Penguin,B,24,,,2,1716,,,,,1,StudyProc5
D_JOL A 2,125,1,BlockProc2,Block2,42,,59,Tantrum - Temper,S,59,,,65,1835,,,,,1,StudyProc5
D_JOL A 2,125,1,BlockProc2,Block2,43,,40,Fight - Brawl,B,40,,,64,7503,,,,,1,StudyProc5
D_JOL A 2,125,1,BlockProc2,Block2,44,,42,Rights - Equal,S,42,,,34,1810,,,,,1,StudyProc5
D_JOL A 2,125,1,BlockProc2,Block2,45,,62,Stretch - Cloth,U,62,,,74,1625,,,,,1,StudyProc5
D_JOL A 2,125,1,BlockProc2,Block2,46,,27,Even - Revenge,B,27,,,53,6357,,,,,1,StudyProc5
D_JOL A 2,125,1,BlockProc2,Block2,47,,44,Candle - Wax,S,44,,,,1955,,,,,1,StudyProc5
D_JOL A 2,125,1,BlockProc2,Block2,48,,54,Phone - Communication,S,54,,,12,1582,,,,,1,StudyProc5
D_JOL A 2,125,1,BlockProc2,Block2,49,,49,Earth - Ground,S,49,,,43,1681,,,,,1,StudyProc5
D_JOL A 2,125,1,BlockProc2,Block2,50,,39,Sleep - Nap,B,39,,,73,1651,,,,,1,StudyProc5
D_JOL A 2,125,1,BlockProc2,Block2,51,,10,Scalp - Head,F,10,,,23,1645,,,,,1,StudyProc5
D_JOL A 2,125,1,BlockProc2,Block2,52,,50,Alone - Lonely,S,50,,,85,2123,,,,,1,StudyProc5
D_JOL A 2,125,1,BlockProc2,Block2,53,,46,Element - Carbon,S,46,,,,1514,,,,,1,StudyProc5
D_JOL A 2,125,1,BlockProc2,Block2,54,,52,Safety - Seatbelt,S,52,,,,1429,,,,,1,StudyProc5
D_JOL A 2,125,1,BlockProc2,Block2,55,,61,Justice - Maroon,U,61,,,0,9760,,,,,1,StudyProc5
D_JOL A 2,125,1,BlockProc2,Block2,56,,71,Name - Hate,U,71,,,6,1733,,,,,1,StudyProc5
D_JOL A 2,125,1,BlockProc2,Block2,57,,41,Razor - Shave,S,41,,,,855,,,,,1,StudyProc5
D_JOL A 2,125,1,BlockProc2,Block2,58,,14,Document - Paper,F,14,,,23,2075,,,,,1,StudyProc5
D_JOL A 2,125,1,BlockProc2,Block2,59,,48,Water - Drink,S,48,,,23,2793,,,,,1,StudyProc5
D_JOL A 2,125,1,BlockProc2,Block2,60,,2,Clue - Game,F,2,,,43,3197,,,,,1,StudyProc5
D_JOL A 2,125,1,BlockProc2,Block2,61,,74,Lease - Toil,U,74,,,5,9234,,,,,1,StudyProc5
D_JOL A 2,125,1,BlockProc2,Block2,62,,30,Best - Favorite,B,30,,,,1351,,,,,1,StudyProc5
D_JOL A 2,125,1,BlockProc2,Block2,63,,67,Shell - Snake,U,67,,,98,8316,,,,,1,StudyProc5
D_JOL A 2,125,1,BlockProc2,Block2,64,,19,Chill - Cold,F,19,,,43,1655,,,,,1,StudyProc5
D_JOL A 2,125,1,BlockProc2,Block2,65,,32,Glass - Breakable,B,32,,,,1064,,,,,1,StudyProc5
D_JOL A 2,125,1,BlockProc2,Block2,66,,21,Turn - Flip,B,21,,,54,2101,,,,,1,StudyProc5
D_JOL A 2,125,1,BlockProc2,Block2,67,,37,Money - Banker,B,37,,,54,1857,,,,,1,StudyProc5
D_JOL A 2,125,1,BlockProc2,Block2,68,,56,Flea - Tick,S,56,,,54,1683,,,,,1,StudyProc5
D_JOL A 2,125,1,BlockProc2,Block2,69,,17,Shears - Scissors,F,17,,,54,1783,,,,,1,StudyProc5
D_JOL A 2,125,1,BlockProc2,Block2,70,,13,Mule - Donkey,F,13,,,7,1562,,,,,1,StudyProc5
D_JOL A 2,125,1,BlockProc2,Block2,71,,58,Own - Have,S,58,,,76,9565,,,,,1,StudyProc5
D_JOL A 2,125,1,BlockProc2,Block2,72,,43,Mason - Jar,S,43,,,12,1703,,,,,1,StudyProc5
D_JOL A 2,125,1,BlockProc2,Block2,73,,75,Loan - Sign,U,75,,,23,1872,,,,,1,StudyProc5
D_JOL A 2,125,1,BlockProc2,Block2,74,,76,Both - Ounce,U,76,,,0,12603,,,,,1,StudyProc5
D_JOL A 2,125,1,BlockProc2,Block2,75,,45,Wrist - Bracelet,S,45,,,6,1546,,,,,1,StudyProc5
D_JOL A 2,125,1,BlockProc2,Block2,76,,69,Keys - Joke,U,69,,,87,1701,,,,,1,StudyProc5
D_JOL A 2,125,1,BlockProc2,Block2,77,,8,Litter - Trash,F,8,,,,7129,,,,,1,StudyProc5
D_JOL A 2,125,1,BlockProc2,Block2,78,,70,Cake - Clothes,U,70,,,9,7036,,,,,1,StudyProc5
D_JOL A 2,125,1,BlockProc2,Block2,79,,66,Crackle - Able,U,66,,,67,2618,,,,,1,StudyProc5
D_JOL A 2,125,1,BlockProc2,Block2,80,,60,Sun - Tan,S,60,,,90,2797,,,,,1,StudyProc5
D_JOL A 2,125,1,BlockProc2,Block2,81,,72,Fuzzy - Bang,U,72,,,8,9735,,,,,1,StudyProc5
D_JOL A 2,125,1,BlockProc2,Block2,82,,9,Cherry - Red,F,9,,,,811,,,,,1,StudyProc5
D_JOL A 2,125,1,BlockProc2,Block2,83,,68,Listen - Fiction,U,68,,,78,3074,,,,,1,StudyProc5
D_JOL A 2,125,1,BlockProc2,Block2,84,,64,Maze - Election,U,64,,,54,1651,,,,,1,StudyProc5
D_JOL A 2,125,1,BlockProc2,Block2,85,,7,Furry - Dog,F,7,,,7,1752,,,,,1,StudyProc5
D_JOL A 2,125,1,BlockProc2,Block2,86,,,Magician - Magic,,4,,,,,,,,,1,StudyProc6
D_JOL A 2,125,1,BlockProc2,Block2,87,,,Deaf - Hear,,3,,,,,,,,,1,StudyProc6
D_JOL A 2,125,1,BlockProc2,Block2,88,,,Contest - Competition,,5,,,,,,,,,1,StudyProc6
D_JOL A 2,125,1,BlockProc2,Block2,89,,,Deciet - Cheat,,1,,,,,,,,,1,StudyProc6
D_JOL A 2,125,1,BlockProc2,Block2,90,,,Mind - Matter,,2,,,,,,,,,1,StudyProc6
D_JOL A 2,125,1,BlockProc2,Block2,91,,,Adjourn - ?,,6,,,,,,,end,2962,1,recallproc2
D_JOL A 2,125,1,BlockProc2,Block2,92,,,Furry - ?,,7,,,,,,,dog,1690,1,recallproc2
D_JOL A 2,125,1,BlockProc2,Block2,93,,,Mirror - ?,,79,,,,,,,child,2557,1,recallproc2
D_JOL A 2,125,1,BlockProc2,Block2,94,,,Sun - ?,,60,,,,,,,tan,1651,1,recallproc2
D_JOL A 2,125,1,BlockProc2,Block2,95,,,Money - ?,,37,,,,,,,change,5016,1,recallproc2
D_JOL A 2,125,1,BlockProc2,Block2,96,,,Plane - ?,,34,,,,,,,aircraft,4286,1,recallproc2
D_JOL A 2,125,1,BlockProc2,Block2,97,,,Document - ?,,14,,,,,,,paper,3545,1,recallproc2
D_JOL A 2,125,1,BlockProc2,Block2,98,,,Best - ?,,30,,,,,,,luck,4642,1,recallproc2
D_JOL A 2,125,1,BlockProc2,Block2,99,,,Water,,48,,,,,,,fall,13807,1,recallproc2
D_JOL A 2,125,1,BlockProc2,Block2,100,,,Wrist - ?,,45,,,,,,,bracelet,3021,1,recallproc2
D_JOL A 2,125,1,BlockProc2,Block2,101,,,Bird - ?,,24,,,,,,,duck,4571,1,recallproc2
D_JOL A 2,125,1,BlockProc2,Block2,102,,,Thread - ?,,26,,,,,,,thimble,3657,1,recallproc2
D_JOL A 2,125,1,BlockProc2,Block2,103,,,Moat - ?,,74,,,,,,,clean,4535,1,recallproc2
D_JOL A 2,125,1,BlockProc2,Block2,104,,,Shoelace - ?,,4,,,,,,,tie,1992,1,recallproc2
D_JOL A 2,125,1,BlockProc2,Block2,105,,,Cake - ?,,71,,,,,,,bang,4622,1,recallproc2
D_JOL A 2,125,1,BlockProc2,Block2,106,,,Feud - ?,,18,,,,,,,fight,1924,1,recallproc2
D_JOL A 2,125,1,BlockProc2,Block2,107,,,Name - ?,,72,,,,,,,hate,4351,1,recallproc2
D_JOL A 2,125,1,BlockProc2,Block2,108,,,Dine - ?,,16,,,,,,,eat,10127,1,recallproc2
D_JOL A 2,125,1,BlockProc2,Block2,109,,,Razor - ?,,41,,,,,,,shave,1944,1,recallproc2
D_JOL A 2,125,1,BlockProc2,Block2,110,,,Shears - ?,,17,,,,,,,scissors,2481,1,recallproc2
D_JOL A 2,125,1,BlockProc2,Block2,111,,,Mule - ?,,13,,,,,,,donkey,2214,1,recallproc2
D_JOL A 2,125,1,BlockProc2,Block2,112,,,Keys - ?,,70,,,,,,,ring,13915,1,recallproc2
D_JOL A 2,125,1,BlockProc2,Block2,113,,,Extension - ?,,1,,,,,,,long,7550,1,recallproc2
D_JOL A 2,125,1,BlockProc2,Block2,114,,,Litter - ?,,8,,,,,,,trash,7246,1,recallproc2
D_JOL A 2,125,1,BlockProc2,Block2,115,,,Rights - ?,,42,,,,,,,wrngs,6171,1,recallproc2
D_JOL A 2,125,1,BlockProc2,Block2,116,,,Cat - ?,,31,,,,,,,chase,7802,1,recallproc2
D_JOL A 2,125,1,BlockProc2,Block2,117,,,Maze - ?,,64,,,,,,,election,4937,1,recallproc2
D_JOL A 2,125,1,BlockProc2,Block2,118,,,Meat - ?,,66,,,,,,,feast,4834,1,recallproc2
D_JOL A 2,125,1,BlockProc2,Block2,119,,,Mason - ?,,43,,,,,,,jar,1703,1,recallproc2
D_JOL A 2,125,1,BlockProc2,Block2,120,,,Car - ?,,22,,,,,,,driver,16289,1,recallproc2
D_JOL A 2,125,1,BlockProc2,Block2,121,,,Bad - ?,,23,,,,,,,news,2019,1,recallproc2
D_JOL A 2,125,1,BlockProc2,Block2,122,,,Both - ?,,77,,,,,,,bold,7961,1,recallproc2
D_JOL A 2,125,1,BlockProc2,Block2,123,,,Rod - ?,,55,,,,,,,reel,2241,1,recallproc2
D_JOL A 2,125,1,BlockProc2,Block2,124,,,Detective - ?,,5,,,,,,,disinfect,6391,1,recallproc2
D_JOL A 2,125,1,BlockProc2,Block2,125,,,Flea - ?,,56,,,,,,,tick,2030,1,recallproc2
D_JOL A 2,125,1,BlockProc2,Block2,126,,,Turn - ?,,21,,,,,,,learn,3883,1,recallproc2
D_JOL A 2,125,1,BlockProc2,Block2,127,,,Temperature - ?,,78,,,,,,,morn,6175,1,recallproc2
D_JOL A 2,125,1,BlockProc2,Block2,128,,,Crackle - ?,,67,,,,,,,able,2063,1,recallproc2
D_JOL A 2,125,1,BlockProc2,Block2,129,,,Element - ?,,46,,,,,,,carbon,3003,1,recallproc2
D_JOL A 2,125,1,BlockProc2,Block2,130,,,Fish - ?,,35,,,,,,,squid,21306,1,recallproc2
D_JOL A 2,125,1,BlockProc2,Block2,131,,,Even - ?,,27,,,,,,,then,8507,1,recallproc2
D_JOL A 2,125,1,BlockProc2,Block2,132,,,Vehicle - ?,,65,,,,,,,dream,3101,1,recallproc2
D_JOL A 2,125,1,BlockProc2,Block2,133,,,Tantrum - ?,,59,,,,,,,temper,2640,1,recallproc2
D_JOL A 2,125,1,BlockProc2,Block2,134,,,Cactus - ?,,3,,,,,,,plant,2325,1,recallproc2
D_JOL A 2,125,1,BlockProc2,Block2,135,,,Give - ?,,63,,,,,,,have,2407,1,recallproc2
D_JOL A 2,125,1,BlockProc2,Block2,136,,,Fruit - ?,,29,,,,,,,strawberry,8477,1,recallproc2
D_JOL A 2,125,1,BlockProc2,Block2,137,,,Dry - ?,,51,,,,,,,wet,4416,1,recallproc2
D_JOL A 2,125,1,BlockProc2,Block2,138,,,Own - ?,,58,,,,,,,have,1679,1,recallproc2
D_JOL A 2,125,1,BlockProc2,Block2,139,,,Phone - ?,,54,,,,,,,number,4235,1,recallproc2
D_JOL A 2,125,1,BlockProc2,Block2,140,,,Affection - ?,,20,,,,,,,love,3304,1,recallproc2
D_JOL A 2,125,1,BlockProc2,Block2,141,,,Fuzzy - ?,,73,,,,,,,bang,5690,1,recallproc2
D_JOL A 2,125,1,BlockProc2,Block2,142,,,Chill - ?,,19,,,,,,,eat,7773,1,recallproc2
D_JOL A 2,125,1,BlockProc2,Block2,143,,,Dead - ?,,33,,,,,,,meat,7701,1,recallproc2
D_JOL A 2,125,1,BlockProc2,Block2,144,,,Justice - ?,,61,,,,,,,maroon,3567,1,recallproc2
D_JOL A 2,125,1,BlockProc2,Block2,145,,,Chop - ?,,12,,,,,,,cut,3751,1,recallproc2
D_JOL A 2,125,1,BlockProc2,Block2,146,,,Safety - ?,,52,,,,,,,seatbelt,3919,1,recallproc2
D_JOL A 2,125,1,BlockProc2,Block2,147,,,Candle - ?,,44,,,,,,,wax,1865,1,recallproc2
D_JOL A 2,125,1,BlockProc2,Block2,148,,,Clue - ?,,2,,,,,,,game,1949,1,recallproc2
D_JOL A 2,125,1,BlockProc2,Block2,149,,,Star - ?,,25,,,,,,,struck,8678,1,recallproc2
D_JOL A 2,125,1,BlockProc2,Block2,150,,,Main - ?,,80,,,,,,,vein,3338,1,recallproc2
D_JOL A 2,125,1,BlockProc2,Block2,151,,,Listen - ?,,69,,,,,,,deaf,8291,1,recallproc2
D_JOL A 2,125,1,BlockProc2,Block2,152,,,Driver - ?,,11,,,,,,,car,1870,1,recallproc2
D_JOL A 2,125,1,BlockProc2,Block2,153,,,Shell - ?,,68,,,,,,,sea,10090,1,recallproc2
D_JOL A 2,125,1,BlockProc2,Block2,154,,,Alone - ?,,50,,,,,,,lonely,5380,1,recallproc2
D_JOL A 2,125,1,BlockProc2,Block2,155,,,Gone - ?,,47,,,,,,,away,8228,1,recallproc2
D_JOL A 2,125,1,BlockProc2,Block2,156,,,Baseball - ?,,36,,,,,,,catcher,3337,1,recallproc2
D_JOL A 2,125,1,BlockProc2,Block2,157,,,Earth - ?,,49,,,,,,,ground,6315,1,recallproc2
D_JOL A 2,125,1,BlockProc2,Block2,158,,,Stretch - ?,,62,,,,,,,skinny,3477,1,recallproc2
D_JOL A 2,125,1,BlockProc2,Block2,159,,,Cherry - ?,,9,,,,,,,red,2025,1,recallproc2
D_JOL A 2,125,1,BlockProc2,Block2,160,,,Loan - ?,,76,,,,,,,borrow,4366,1,recallproc2
D_JOL A 2,125,1,BlockProc2,Block2,161,,,Glass - ?,,32,,,,,,,mirror,6911,1,recallproc2
D_JOL A 2,125,1,BlockProc2,Block2,162,,,Fight - ?,,40,,,,,,,feud,2289,1,recallproc2
D_JOL A 2,125,1,BlockProc2,Block2,163,,,Lease - ?,,75,,,,,,,title,8252,1,recallproc2
D_JOL A 2,125,1,BlockProc2,Block2,164,,,Loud - ?,,57,,,,,,,noise,8248,1,recallproc2
D_JOL A 2,125,1,BlockProc2,Block2,165,,,Pop - ?,,28,,,,,,,soda,2501,1,recallproc2
D_JOL A 2,125,1,BlockProc2,Block2,166,,,Scalp - ?,,10,,,,,,,head,2064,1,recallproc2
D_JOL A 2,125,1,BlockProc2,Block2,167,,,Truth - ?,,53,,,,,,,lie,1748,1,recallproc2
D_JOL A 2,125,1,BlockProc2,Block2,168,,,Sleep - ?,,39,,,,,,,awake,4117,1,recallproc2
D_JOL A 2,125,1,BlockProc2,Block2,169,,,Incense - ?,,15,,,,,,,smell,3719,1,recallproc2
D_JOL A 2,125,1,BlockProc2,Block2,170,,,Honest - ?,,38,,,,,,,liw,8089,1,recallproc2
D_JOL A 2,129,1,BlockProc1,Block1,1,,,Shrimp - Fish,,4,,,,,,,,,1,StudyProc1
D_JOL A 2,129,1,BlockProc1,Block1,2,,,Haircut-Scissors,,1,,,,,,,,,1,StudyProc1
D_JOL A 2,129,1,BlockProc1,Block1,3,,,Snow - Ice,,3,,,,,,,,,1,StudyProc1
D_JOL A 2,129,1,BlockProc1,Block1,4,,,Member - Group,,5,,,,,,,,,1,StudyProc1
D_JOL A 2,129,1,BlockProc1,Block1,5,,,Curtain - Drapes,,2,,,,,,,,,1,StudyProc1
D_JOL A 2,129,1,BlockProc1,Block1,6,23,,Dark - Cave,B,23,90,9900,,,,,,,1,StudyProc3
D_JOL A 2,129,1,BlockProc1,Block1,7,65,,Soon - Belt,U,65,100,5398,,,,,,,1,StudyProc3
D_JOL A 2,129,1,BlockProc1,Block1,8,80,,King - Vase,U,80,100,2866,,,,,,,1,StudyProc3
D_JOL A 2,129,1,BlockProc1,Block1,9,10,,Paw - Dog,F,10,99,12988,,,,,,,1,StudyProc3
D_JOL A 2,129,1,BlockProc1,Block1,10,75,,Strong - Accident,U,75,5,9261,,,,,,,1,StudyProc3
D_JOL A 2,129,1,BlockProc1,Block1,11,22,,Drink - Sip,B,22,100,2896,,,,,,,1,StudyProc3
D_JOL A 2,129,1,BlockProc1,Block1,12,8,,Root - Plant,F,8,100,3721,,,,,,,1,StudyProc3
D_JOL A 2,129,1,BlockProc1,Block1,13,74,,Art - Lion,U,74,0,5852,,,,,,,1,StudyProc3
D_JOL A 2,129,1,BlockProc1,Block1,14,33,,Ball - Racket,B,33,100,3260,,,,,,,1,StudyProc3
D_JOL A 2,129,1,BlockProc1,Block1,15,1,,Delinquent - Bad,F,1,100,2792,,,,,,,1,StudyProc3
D_JOL A 2,129,1,BlockProc1,Block1,16,64,,Lift - Woman,U,64,100,4300,,,,,,,1,StudyProc3
D_JOL A 2,129,1,BlockProc1,Block1,17,7,,Bitter - Cold,F,7,100,4671,,,,,,,1,StudyProc3
D_JOL A 2,129,1,BlockProc1,Block1,18,76,,Sugar - Riddle,U,76,100,2557,,,,,,,1,StudyProc3
D_JOL A 2,129,1,BlockProc1,Block1,19,69,,Artery - Bronze,U,69,100,4139,,,,,,,1,StudyProc3
D_JOL A 2,129,1,BlockProc1,Block1,20,68,,Debate - Sight,U,68,100,3392,,,,,,,1,StudyProc3
D_JOL A 2,129,1,BlockProc1,Block1,21,34,,Work - Chore,B,34,100,4933,,,,,,,1,StudyProc3
D_JOL A 2,129,1,BlockProc1,Block1,22,16,,Discussion - Talk,F,16,100,3149,,,,,,,1,StudyProc3
D_JOL A 2,129,1,BlockProc1,Block1,23,46,,Architecture - Design,S,46,100,5848,,,,,,,1,StudyProc3
D_JOL A 2,129,1,BlockProc1,Block1,24,78,,Cash - Would,U,78,100,4981,,,,,,,1,StudyProc3
D_JOL A 2,129,1,BlockProc1,Block1,25,30,,Great - Fantastic,B,30,100,3785,,,,,,,1,StudyProc3
D_JOL A 2,129,1,BlockProc1,Block1,26,45,,Trial - Jury,S,45,100,3153,,,,,,,1,StudyProc3
D_JOL A 2,129,1,BlockProc1,Block1,27,53,,Bathroom - Toilet,S,53,90,5240,,,,,,,1,StudyProc3
D_JOL A 2,129,1,BlockProc1,Block1,28,70,,Fix - Hand,U,70,100,2536,,,,,,,1,StudyProc3
D_JOL A 2,129,1,BlockProc1,Block1,29,21,,Full - Enough,B,21,100,2389,,,,,,,1,StudyProc3
D_JOL A 2,129,1,BlockProc1,Block1,30,27,,Bug - Wasp,B,27,100,3231,,,,,,,1,StudyProc3
D_JOL A 2,129,1,BlockProc1,Block1,31,55,,Shoe - Foot,S,55,100,4080,,,,,,,1,StudyProc3
D_JOL A 2,129,1,BlockProc1,Block1,32,60,,Circle - Round,S,60,100,3663,,,,,,,1,StudyProc3
D_JOL A 2,129,1,BlockProc1,Block1,33,79,,Hide - Sick,U,79,100,2535,,,,,,,1,StudyProc3
D_JOL A 2,129,1,BlockProc1,Block1,34,9,,Swan - Bird,F,9,50,6064,,,,,,,1,StudyProc3
D_JOL A 2,129,1,BlockProc1,Block1,35,38,,Clothes - Attire,B,38,100,2931,,,,,,,1,StudyProc3
D_JOL A 2,129,1,BlockProc1,Block1,36,32,,Hot - Chili,B,32,100,1840,,,,,,,1,StudyProc3
D_JOL A 2,129,1,BlockProc1,Block1,37,50,,Blow - Wind,S,50,100,2129,,,,,,,1,StudyProc3
D_JOL A 2,129,1,BlockProc1,Block1,38,11,,Way - Out,F,11,100,2702,,,,,,,1,StudyProc3
D_JOL A 2,129,1,BlockProc1,Block1,39,6,,Hornet - Sting,F,6,100,2794,,,,,,,1,StudyProc3
D_JOL A 2,129,1,BlockProc1,Block1,40,3,,Wage - Money,F,3,100,2157,,,,,,,1,StudyProc3
D_JOL A 2,129,1,BlockProc1,Block1,41,19,,Orchid - Flower,F,19,100,2869,,,,,,,1,StudyProc3
D_JOL A 2,129,1,BlockProc1,Block1,42,72,,Happy - Car,U,72,100,3712,,,,,,,1,StudyProc3
D_JOL A 2,129,1,BlockProc1,Block1,43,20,,Tuna -  Fish,F,20,100,1871,,,,,,,1,StudyProc3
D_JOL A 2,129,1,BlockProc1,Block1,44,41,,Due - Assignment,S,41,100,2307,,,,,,,1,StudyProc3
D_JOL A 2,129,1,BlockProc1,Block1,45,47,,Grill -Bar,S,47,100,2659,,,,,,,1,StudyProc3
D_JOL A 2,129,1,BlockProc1,Block1,46,2,,Digestion - Stomach,F,2,100,2507,,,,,,,1,StudyProc3
D_JOL A 2,129,1,BlockProc1,Block1,47,49,,Begin - End,S,49,100,2124,,,,,,,1,StudyProc3
D_JOL A 2,129,1,BlockProc1,Block1,48,12,,Hygiene - Clean,F,12,100,2279,,,,,,,1,StudyProc3
D_JOL A 2,129,1,BlockProc1,Block1,49,31,,Key - Latch,B,31,100,2052,,,,,,,1,StudyProc3
D_JOL A 2,129,1,BlockProc1,Block1,50,58,,Honey - Bee,S,58,100,2078,,,,,,,1,StudyProc3
D_JOL A 2,129,1,BlockProc1,Block1,51,13,,Bridge - Water,F,13,100,2569,,,,,,,1,StudyProc3
D_JOL A 2,129,1,BlockProc1,Block1,52,40,,Fire - Blaze,B,40,100,3389,,,,,,,1,StudyProc3
D_JOL A 2,129,1,BlockProc1,Block1,53,36,,Sleep - Drowsy,B,36,100,3264,,,,,,,1,StudyProc3
D_JOL A 2,129,1,BlockProc1,Block1,54,26,,Sentence - Word,B,26,100,2189,,,,,,,1,StudyProc3
D_JOL A 2,129,1,BlockProc1,Block1,55,42,,Number - Amount,S,42,100,3241,,,,,,,1,StudyProc3
D_JOL A 2,129,1,BlockProc1,Block1,56,56,,Past - Future,S,57,100,2473,,,,,,,1,StudyProc3
D_JOL A 2,129,1,BlockProc1,Block1,57,5,,Editor - News,F,5,100,2870,,,,,,,1,StudyProc3
D_JOL A 2,129,1,BlockProc1,Block1,58,73,,Allow - Tuck,U,73,98,3537,,,,,,,1,StudyProc3
D_JOL A 2,129,1,BlockProc1,Block1,59,57,,Lettuce - Salad,S,56,100,5404,,,,,,,1,StudyProc3
D_JOL A 2,129,1,BlockProc1,Block1,60,59,,Baby - Child,S,59,100,2279,,,,,,,1,StudyProc3
D_JOL A 2,129,1,BlockProc1,Block1,61,67,,Death - Business,U,67,100,2673,,,,,,,1,StudyProc3
D_JOL A 2,129,1,BlockProc1,Block1,62,51,,Pop - Soda,S,51,100,3068,,,,,,,1,StudyProc3
D_JOL A 2,129,1,BlockProc1,Block1,63,62,,Dietary - Sacking,U,62,100,2177,,,,,,,1,StudyProc3
D_JOL A 2,129,1,BlockProc1,Block1,64,24,,Take - Seize,B,24,100,1972,,,,,,,1,StudyProc3
D_JOL A 2,129,1,BlockProc1,Block1,65,37,,Smell - Stench,B,37,100,3333,,,,,,,1,StudyProc3
D_JOL A 2,129,1,BlockProc1,Block1,66,4,,Chisel - Hammer,F,4,100,2010,,,,,,,1,StudyProc3
D_JOL A 2,129,1,BlockProc1,Block1,67,77,,Valley - Add,U,77,100,3614,,,,,,,1,StudyProc3
D_JOL A 2,129,1,BlockProc1,Block1,68,39,,Plane - Pilot,B,39,100,2693,,,,,,,1,StudyProc3
D_JOL A 2,129,1,BlockProc1,Block1,69,71,,Machine - Position,U,71,100,2876,,,,,,,1,StudyProc3
D_JOL A 2,129,1,BlockProc1,Block1,70,14,,Geology - Rock,F,14,100,2708,,,,,,,1,StudyProc3
D_JOL A 2,129,1,BlockProc1,Block1,71,29,,Law - Attorney,B,29,100,4364,,,,,,,1,StudyProc3
D_JOL A 2,129,1,BlockProc1,Block1,72,52,,Wine - Cheese,S,52,100,2302,,,,,,,1,StudyProc3
D_JOL A 2,129,1,BlockProc1,Block1,73,15,,Revolution - War,F,15,100,3398,,,,,,,1,StudyProc3
D_JOL A 2,129,1,BlockProc1,Block1,74,17,,Herd - Cow,F,17,100,2115,,,,,,,1,StudyProc3
D_JOL A 2,129,1,BlockProc1,Block1,75,35,,Hunger - Famine,B,35,90,4846,,,,,,,1,StudyProc3
D_JOL A 2,129,1,BlockProc1,Block1,76,63,,Park - Hungry,U,63,95,8877,,,,,,,1,StudyProc3
D_JOL A 2,129,1,BlockProc1,Block1,77,43,,Location - Site,S,43,100,2120,,,,,,,1,StudyProc3
D_JOL A 2,129,1,BlockProc1,Block1,78,48,,Kidney - Liver,S,48,100,3064,,,,,,,1,StudyProc3
D_JOL A 2,129,1,BlockProc1,Block1,79,44,,Dump - Waste,S,44,100,3962,,,,,,,1,StudyProc3
D_JOL A 2,129,1,BlockProc1,Block1,80,66,,Discover - Floor,U,66,100,2253,,,,,,,1,StudyProc3
D_JOL A 2,129,1,BlockProc1,Block1,81,61,,Pusher - Clutter,U,61,96,4283,,,,,,,1,StudyProc3
D_JOL A 2,129,1,BlockProc1,Block1,82,54,,Choice - Decision,S,54,100,2238,,,,,,,1,StudyProc3
D_JOL A 2,129,1,BlockProc1,Block1,83,28,,Math - Division,B,28,100,2270,,,,,,,1,StudyProc3
D_JOL A 2,129,1,BlockProc1,Block1,84,25,,Height - Growth,B,25,100,2376,,,,,,,1,StudyProc3
D_JOL A 2,129,1,BlockProc1,Block1,85,18,,Credit - Card,F,18,100,2961,,,,,,,1,StudyProc3
D_JOL A 2,129,1,BlockProc1,Block1,86,,,Grab - Take,,2,,,,,,,,,1,StudyProc2
D_JOL A 2,129,1,BlockProc1,Block1,87,,,Trees - Green,,5,,,,,,,,,1,StudyProc2
D_JOL A 2,129,1,BlockProc1,Block1,88,,,Catcher - Baseball,,4,,,,,,,,,1,StudyProc2
D_JOL A 2,129,1,BlockProc1,Block1,89,,,Friendliness - Nice,,3,,,,,,,,,1,StudyProc2
D_JOL A 2,129,1,BlockProc1,Block1,90,,,Geese - Goose,,1,,,,,,,,,1,StudyProc2
D_JOL A 2,129,1,BlockProc1,Block1,91,,,Artery - ?,,69,,,,,vase,7492,,,1,recallproc1
D_JOL A 2,129,1,BlockProc1,Block1,92,,,Death - ?,,67,,,,,busniess,3991,,,1,recallproc1
D_JOL A 2,129,1,BlockProc1,Block1,93,,,Lettuce - ?,,56,,,,,salad,1894,,,1,recallproc1
D_JOL A 2,129,1,BlockProc1,Block1,94,,,Geology - ?,,14,,,,,rock,3417,,,1,recallproc1
D_JOL A 2,129,1,BlockProc1,Block1,95,,,Sleep - ?,,36,,,,,dawse,9688,,,1,recallproc1
D_JOL A 2,129,1,BlockProc1,Block1,96,,,Hunger - ?,,35,,,,,food,9747,,,1,recallproc1
D_JOL A 2,129,1,BlockProc1,Block1,97,,,Full - ?,,21,,,,,enough,2523,,,1,recallproc1
D_JOL A 2,129,1,BlockProc1,Block1,98,,,Law - ?,,29,,,,,ATTORNEY,4197,,,1,recallproc1
D_JOL A 2,129,1,BlockProc1,Block1,99,,,Dump - ?,,44,,,,,WASTE,1812,,,1,recallproc1
D_JOL A 2,129,1,BlockProc1,Block1,100,,,Herd - ?,,17,,,,,COW,1939,,,1,recallproc1
D_JOL A 2,129,1,BlockProc1,Block1,101,,,Great - ?,,30,,,,,FANTASTIC,4636,,,1,recallproc1
D_JOL A 2,129,1,BlockProc1,Block1,102,,,Architecture - ?,,46,,,,,DESIGN,2633,,,1,recallproc1
D_JOL A 2,129,1,BlockProc1,Block1,103,,,Paw - ?,,10,,,,,DOG,3983,,,1,recallproc1
D_JOL A 2,129,1,BlockProc1,Block1,104,,,Art - ?,,74,,,,,PICTURE,8078,,,1,recallproc1
D_JOL A 2,129,1,BlockProc1,Block1,105,,,Park - ?,,63,,,,,HUNGER,3794,,,1,recallproc1
D_JOL A 2,129,1,BlockProc1,Block1,106,,,Hygiene - ?,,12,,,,,CLEAN,2441,,,1,recallproc1
D_JOL A 2,129,1,BlockProc1,Block1,107,,,Hide - ?,,79,,,,,SICK,2333,,,1,recallproc1
D_JOL A 2,129,1,BlockProc1,Block1,108,,,Clothes - ?,,38,,,,,ATTIRE,6984,,,1,recallproc1
D_JOL A 2,129,1,BlockProc1,Block1,109,,,Dark - ?,,23,,,,,CAVE,6400,,,1,recallproc1
D_JOL A 2,129,1,BlockProc1,Block1,110,,,Digestion - ?,,2,,,,,STOMACH,2366,,,1,recallproc1
D_JOL A 2,129,1,BlockProc1,Block1,111,,,Plane - ?,,39,,,,,PILOT,2191,,,1,recallproc1
D_JOL A 2,129,1,BlockProc1,Block1,112,,,Grill - ?,,47,,,,,BAR,2422,,,1,recallproc1
D_JOL A 2,129,1,BlockProc1,Block1,113,,,Fire - ?,,40,,,,,BLAZE,2412,,,1,recallproc1
D_JOL A 2,129,1,BlockProc1,Block1,114,,,Cash - ?,,78,,,,,MONEY,2218,,,1,recallproc1
D_JOL A 2,129,1,BlockProc1,Block1,115,,,Height - ?,,25,,,,,WEIGHT,3360,,,1,recallproc1
D_JOL A 2,129,1,BlockProc1,Block1,116,,,Trial - ?,,45,,,,,JURY,2385,,,1,recallproc1
D_JOL A 2,129,1,BlockProc1,Block1,117,,,Revolution - ?,,15,,,,,WAR,1648,,,1,recallproc1
D_JOL A 2,129,1,BlockProc1,Block1,118,,,Dietary - ?,,62,,,,,AIDE,3133,,,1,recallproc1
D_JOL A 2,129,1,BlockProc1,Block1,119,,,Math - ?,,28,,,,,DIVISION,3254,,,1,recallproc1
D_JOL A 2,129,1,BlockProc1,Block1,120,,,Editor - ?,,5,,,,,NEWS,2259,,,1,recallproc1
D_JOL A 2,129,1,BlockProc1,Block1,121,,,Hornet - ?,,6,,,,,STING,4912,,,1,recallproc1
D_JOL A 2,129,1,BlockProc1,Block1,122,,,Begin - ?,,49,,,,,END,1410,,,1,recallproc1
D_JOL A 2,129,1,BlockProc1,Block1,123,,,Baby - ?,,59,,,,,CHILD,2281,,,1,recallproc1
D_JOL A 2,129,1,BlockProc1,Block1,124,,,Sugar - ?,,76,,,,,SWEET,7156,,,1,recallproc1
D_JOL A 2,129,1,BlockProc1,Block1,125,,,Strong - ?,,75,,,,,WEAK,2812,,,1,recallproc1
D_JOL A 2,129,1,BlockProc1,Block1,126,,,Machine - ?,,71,,,,,POSITION,3323,,,1,recallproc1
D_JOL A 2,129,1,BlockProc1,Block1,127,,,Valley - ?,,77,,,,,AREANA,7404,,,1,recallproc1
D_JOL A 2,129,1,BlockProc1,Block1,128,,,Root - ?,,8,,,,,PLANT,2699,,,1,recallproc1
D_JOL A 2,129,1,BlockProc1,Block1,129,,,Wine - ?,,52,,,,,CHEESE,2125,,,1,recallproc1
D_JOL A 2,129,1,BlockProc1,Block1,130,,,Location - ?,,43,,,,,SPOT,4423,,,1,recallproc1
D_JOL A 2,129,1,BlockProc1,Block1,131,,,Take - ?,,24,,,,,GRAB,2229,,,1,recallproc1
D_JOL A 2,129,1,BlockProc1,Block1,132,,,Shoe - ?,,55,,,,,FOOT,1923,,,1,recallproc1
D_JOL A 2,129,1,BlockProc1,Block1,133,,,Orchid - ?,,19,,,,,FLOWER,2102,,,1,recallproc1
D_JOL A 2,129,1,BlockProc1,Block1,134,,,Discussion - ?,,16,,,,,TALK,1967,,,1,recallproc1
D_JOL A 2,129,1,BlockProc1,Block1,135,,,Allow - ?,,73,,,,,BAN,3336,,,1,recallproc1
D_JOL A 2,129,1,BlockProc1,Block1,136,,,Sentence - ?,,26,,,,,PERIOD,4488,,,1,recallproc1
D_JOL A 2,129,1,BlockProc1,Block1,137,,,King - ?,,80,,,,,QUEEN,5003,,,1,recallproc1
D_JOL A 2,129,1,BlockProc1,Block1,138,,,Soon - ?,,65,,,,,LATER,2866,,,1,recallproc1
D_JOL A 2,129,1,BlockProc1,Block1,139,,,Ball - ?,,33,,,,,RACKET,3086,,,1,recallproc1
D_JOL A 2,129,1,BlockProc1,Block1,140,,,Debate - ?,,68,,,,,ARGUMENT,5514,,,1,recallproc1
D_JOL A 2,129,1,BlockProc1,Block1,141,,,Circle - ?,,60,,,,,ROUND,2124,,,1,recallproc1
D_JOL A 2,129,1,BlockProc1,Block1,142,,,Choice - ?,,54,,,,,PICK,3901,,,1,recallproc1
D_JOL A 2,129,1,BlockProc1,Block1,143,,,Due - ?,,41,,,,,ASSIGNMENT,5681,,,1,recallproc1
