ExperimentName,Subject,Session,Procedure[Block],Running[Block],Trial,Block1ITEMS,Block2ITEMS,cue_target,Direction,ListNum,pword3.RESP,pword3.RT,pword5.RESP,pword5.RT,Rword1.RESP,Rword1.RT,Rword2.RESP,Rword2.RT,Procedure[Trial]
D_JOL C 2,139,1,BlockProc1,Block1,1,,,Curtain - Drapes,,2,,,,,,,,,StudyProc1
D_JOL C 2,139,1,BlockProc1,Block1,2,,,Haircut-Scissors,,1,,,,,,,,,StudyProc1
D_JOL C 2,139,1,BlockProc1,Block1,3,,,Shrimp - Fish,,4,,,,,,,,,StudyProc1
D_JOL C 2,139,1,BlockProc1,Block1,4,,,Member - Group,,5,,,,,,,,,StudyProc1
D_JOL C 2,139,1,BlockProc1,Block1,5,,,Snow - Ice,,3,,,,,,,,,StudyProc1
D_JOL C 2,139,1,BlockProc1,Block1,6,10,,Fantastic - Great,F,10,100,2715,,,,,,,StudyProc3
D_JOL C 2,139,1,BlockProc1,Block1,7,67,,Business - Death,U,67,100,4415,,,,,,,StudyProc3
D_JOL C 2,139,1,BlockProc1,Block1,8,27,,Plant - Root,B,27,100,2808,,,,,,,StudyProc3
D_JOL C 2,139,1,BlockProc1,Block1,9,45,,Jury - Trial,S,45,100,3065,,,,,,,StudyProc3
D_JOL C 2,139,1,BlockProc1,Block1,10,46,,Design - Architecture,S,46,100,3135,,,,,,,StudyProc3
D_JOL C 2,139,1,BlockProc1,Block1,11,25,,Sting - Hornet,B,25,100,3772,,,,,,,StudyProc3
D_JOL C 2,139,1,BlockProc1,Block1,12,16,,Drowsy - Sleep,F,16,95,6233,,,,,,,StudyProc3
D_JOL C 2,139,1,BlockProc1,Block1,13,39,,Fish - Tuna,B,39,100,2402,,,,,,,StudyProc3
D_JOL C 2,139,1,BlockProc1,Block1,14,71,,Position - Machine,U,71,100,2120,,,,,,,StudyProc3
D_JOL C 2,139,1,BlockProc1,Block1,15,14,,Chore - Work,F,14,100,3283,,,,,,,StudyProc3
D_JOL C 2,139,1,BlockProc1,Block1,16,59,,Child - Baby,S,59,100,2388,,,,,,,StudyProc3
D_JOL C 2,139,1,BlockProc1,Block1,17,63,,Hungry - Park,U,63,100,2803,,,,,,,StudyProc3
D_JOL C 2,139,1,BlockProc1,Block1,18,35,,Talk - Discussion,B,35,90,5280,,,,,,,StudyProc3
D_JOL C 2,139,1,BlockProc1,Block1,19,22,,Stomach - Digestion,B,22,85,7055,,,,,,,StudyProc3
D_JOL C 2,139,1,BlockProc1,Block1,20,24,,News - Editor,B,24,100,2481,,,,,,,StudyProc3
D_JOL C 2,139,1,BlockProc1,Block1,21,49,,End - Begin,S,49,,1758,,,,,,,StudyProc3
D_JOL C 2,139,1,BlockProc1,Block1,22,62,,Sacking - Dietary,U,62,100,5926,,,,,,,StudyProc3
D_JOL C 2,139,1,BlockProc1,Block1,23,36,,Cow - Herd,B,36,100,3128,,,,,,,StudyProc3
D_JOL C 2,139,1,BlockProc1,Block1,24,13,,Racket - Ball,F,13,100,4149,,,,,,,StudyProc3
D_JOL C 2,139,1,BlockProc1,Block1,25,80,,Vase - King,U,80,100,2405,,,,,,,StudyProc3
D_JOL C 2,139,1,BlockProc1,Block1,26,48,,Liver - Kidney,S,48,100,4516,,,,,,,StudyProc3
D_JOL C 2,139,1,BlockProc1,Block1,27,75,,Accident - Strong,U,75,100,2437,,,,,,,StudyProc3
D_JOL C 2,139,1,BlockProc1,Block1,28,21,,Bad - Delinquent,B,21,100,2540,,,,,,,StudyProc3
D_JOL C 2,139,1,BlockProc1,Block1,29,70,,Hand - Fix,U,70,100,3764,,,,,,,StudyProc3
D_JOL C 2,139,1,BlockProc1,Block1,30,47,,Bar - Grill,S,47,100,3268,,,,,,,StudyProc3
D_JOL C 2,139,1,BlockProc1,Block1,31,6,,Word - Sentence,F,6,100,2511,,,,,,,StudyProc3
D_JOL C 2,139,1,BlockProc1,Block1,32,40,,Hammer - Chisel,B,40,100,5160,,,,,,,StudyProc3
D_JOL C 2,139,1,BlockProc1,Block1,33,53,,Toilet - Bathroom,S,53,100,2175,,,,,,,StudyProc3
D_JOL C 2,139,1,BlockProc1,Block1,34,17,,Stench - Smell,F,17,100,2226,,,,,,,StudyProc3
D_JOL C 2,139,1,BlockProc1,Block1,35,19,,Pilot - Plane,F,19,100,3687,,,,,,,StudyProc3
D_JOL C 2,139,1,BlockProc1,Block1,36,33,,Rock - Geology,B,33,100,2343,,,,,,,StudyProc3
D_JOL C 2,139,1,BlockProc1,Block1,37,43,,Site - Location,S,43,100,2359,,,,,,,StudyProc3
D_JOL C 2,139,1,BlockProc1,Block1,38,4,,Seize - Take,F,4,100,1696,,,,,,,StudyProc3
D_JOL C 2,139,1,BlockProc1,Block1,39,30,,Out - Way,B,30,85,6059,,,,,,,StudyProc3
D_JOL C 2,139,1,BlockProc1,Block1,40,29,,Dog - Paw,B,29,100,3093,,,,,,,StudyProc3
D_JOL C 2,139,1,BlockProc1,Block1,41,18,,Attire - Clothes,F,18,10,4535,,,,,,,StudyProc3
D_JOL C 2,139,1,BlockProc1,Block1,42,31,,Clean - Hygiene,B,31,100,4199,,,,,,,StudyProc3
D_JOL C 2,139,1,BlockProc1,Block1,43,28,,Bird - Swan,B,28,100,2493,,,,,,,StudyProc3
D_JOL C 2,139,1,BlockProc1,Block1,44,57,,Salad - Lettuce,S,57,100,2012,,,,,,,StudyProc3
D_JOL C 2,139,1,BlockProc1,Block1,45,23,,Money - Wage,B,23,100,3702,,,,,,,StudyProc3
D_JOL C 2,139,1,BlockProc1,Block1,46,64,,Woman - Lift,U,64,100,2268,,,,,,,StudyProc3
D_JOL C 2,139,1,BlockProc1,Block1,47,26,,Cold - Bitter,B,26,100,2476,,,,,,,StudyProc3
D_JOL C 2,139,1,BlockProc1,Block1,48,51,,Soda - Pop,S,51,100,2540,,,,,,,StudyProc3
D_JOL C 2,139,1,BlockProc1,Block1,49,44,,Waste - Dump,S,44,100,1433,,,,,,,StudyProc3
D_JOL C 2,139,1,BlockProc1,Block1,50,78,,Would - Cash,U,78,100,2585,,,,,,,StudyProc3
D_JOL C 2,139,1,BlockProc1,Block1,51,42,,Amount - Number,S,42,100,1837,,,,,,,StudyProc3
D_JOL C 2,139,1,BlockProc1,Block1,52,1,,Enough - Full,F,1,100,2363,,,,,,,StudyProc3
D_JOL C 2,139,1,BlockProc1,Block1,53,77,,Add - Valley,U,77,100,3147,,,,,,,StudyProc3
D_JOL C 2,139,1,BlockProc1,Block1,54,79,,Sick - Hide,U,79,100,1822,,,,,,,StudyProc3
D_JOL C 2,139,1,BlockProc1,Block1,55,56,,Future - Past,S,56,100,2988,,,,,,,StudyProc3
D_JOL C 2,139,1,BlockProc1,Block1,56,3,,Cave - Dark,F,3,100,2602,,,,,,,StudyProc3
D_JOL C 2,139,1,BlockProc1,Block1,57,34,,War - Revolution,B,34,65,4796,,,,,,,StudyProc3
D_JOL C 2,139,1,BlockProc1,Block1,58,20,,Blaze - Fire,F,20,100,2480,,,,,,,StudyProc3
D_JOL C 2,139,1,BlockProc1,Block1,59,73,,Tuck - Allow,U,73,100,2742,,,,,,,StudyProc3
D_JOL C 2,139,1,BlockProc1,Block1,60,41,,Assignment - Due,S,41,100,1711,,,,,,,StudyProc3
D_JOL C 2,139,1,BlockProc1,Block1,61,37,,Card - Credit,B,37,,432,,,,,,,StudyProc3
D_JOL C 2,139,1,BlockProc1,Block1,62,38,,Flower - Orchid,B,38,10,5391,,,,,,,StudyProc3
D_JOL C 2,139,1,BlockProc1,Block1,63,54,,Decision - Choice,S,54,100,1487,,,,,,,StudyProc3
D_JOL C 2,139,1,BlockProc1,Block1,64,12,,Chili - Hot,F,12,100,1312,,,,,,,StudyProc3
D_JOL C 2,139,1,BlockProc1,Block1,65,61,,Clutter - Pusher,U,61,100,3321,,,,,,,StudyProc3
D_JOL C 2,139,1,BlockProc1,Block1,66,15,,Famine - Hunger,F,15,100,2785,,,,,,,StudyProc3
D_JOL C 2,139,1,BlockProc1,Block1,67,5,,Growth - Height,F,5,100,2234,,,,,,,StudyProc3
D_JOL C 2,139,1,BlockProc1,Block1,68,32,,Water - Bridge,B,32,100,1949,,,,,,,StudyProc3
D_JOL C 2,139,1,BlockProc1,Block1,69,55,,Foot - Shoe,S,55,100,1086,,,,,,,StudyProc3
D_JOL C 2,139,1,BlockProc1,Block1,70,72,,Car - Happy,U,72,100,1753,,,,,,,StudyProc3
D_JOL C 2,139,1,BlockProc1,Block1,71,66,,Floor - Discover,U,66,100,2066,,,,,,,StudyProc3
D_JOL C 2,139,1,BlockProc1,Block1,72,2,,Sip - Drink,F,2,100,1856,,,,,,,StudyProc3
D_JOL C 2,139,1,BlockProc1,Block1,73,76,,Riddle - Sugar,U,76,100,2316,,,,,,,StudyProc3
D_JOL C 2,139,1,BlockProc1,Block1,74,69,,Bronze - Artery,U,69,100,2324,,,,,,,StudyProc3
D_JOL C 2,139,1,BlockProc1,Block1,75,8,,Division - Math,F,8,100,2535,,,,,,,StudyProc3
D_JOL C 2,139,1,BlockProc1,Block1,76,65,,Belt - Soon,U,65,100,2232,,,,,,,StudyProc3
D_JOL C 2,139,1,BlockProc1,Block1,77,58,,Bee - Honey,S,58,100,2979,,,,,,,StudyProc3
D_JOL C 2,139,1,BlockProc1,Block1,78,11,,Latch - Key,F,11,10,3269,,,,,,,StudyProc3
D_JOL C 2,139,1,BlockProc1,Block1,79,50,,Wind - Blow,S,50,100,2803,,,,,,,StudyProc3
D_JOL C 2,139,1,BlockProc1,Block1,80,68,,Sight - Debate,U,68,100,1365,,,,,,,StudyProc3
D_JOL C 2,139,1,BlockProc1,Block1,81,60,,Round - Circle,S,60,100,1463,,,,,,,StudyProc3
D_JOL C 2,139,1,BlockProc1,Block1,82,52,,Cheese - Wine,S,52,100,1334,,,,,,,StudyProc3
D_JOL C 2,139,1,BlockProc1,Block1,83,9,,Attorney - Law,F,9,100,1472,,,,,,,StudyProc3
D_JOL C 2,139,1,BlockProc1,Block1,84,7,,Wasp - Bug,F,7,100,1925,,,,,,,StudyProc3
D_JOL C 2,139,1,BlockProc1,Block1,85,74,,Lion - Art,U,74,75,4055,,,,,,,StudyProc3
D_JOL C 2,139,1,BlockProc1,Block1,86,,,Catcher - Baseball,,4,,,,,,,,,StudyProc2
D_JOL C 2,139,1,BlockProc1,Block1,87,,,Friendliness - Nice,,3,,,,,,,,,StudyProc2
D_JOL C 2,139,1,BlockProc1,Block1,88,,,Grab - Take,,2,,,,,,,,,StudyProc2
D_JOL C 2,139,1,BlockProc1,Block1,89,,,Trees - Green,,5,,,,,,,,,StudyProc2
D_JOL C 2,139,1,BlockProc1,Block1,90,,,Geese - Goose,,1,,,,,,,,,StudyProc2
D_JOL C 2,139,1,BlockProc1,Block1,91,,,Fantastic - ?,,10,,,,,good,13979,,,recallproc1
D_JOL C 2,139,1,BlockProc1,Block1,92,,,Bird - ?,,29,,,,,tree,3854,,,recallproc1
D_JOL C 2,139,1,BlockProc1,Block1,93,,,Bee - ?,,58,,,,,joney,3439,,,recallproc1
D_JOL C 2,139,1,BlockProc1,Block1,94,,,Sick - ?,,79,,,,,sneeze,18289,,,recallproc1
D_JOL C 2,139,1,BlockProc1,Block1,95,,,Salad - ?,,57,,,,,leaf,10331,,,recallproc1
D_JOL C 2,139,1,BlockProc1,Block1,96,,,Chore - ?,,14,,,,,work,3755,,,recallproc1
D_JOL C 2,139,1,BlockProc1,Block1,97,,,Liver - ?,,48,,,,,day,15976,,,recallproc1
D_JOL C 2,139,1,BlockProc1,Block1,98,,,Cow - ?,,37,,,,,milk,2928,,,recallproc1
D_JOL C 2,139,1,BlockProc1,Block1,99,,,Floor - ?,,66,,,,,eght,13567,,,recallproc1
D_JOL C 2,139,1,BlockProc1,Block1,100,,,Card - ?,,38,,,,,hold,3938,,,recallproc1
D_JOL C 2,139,1,BlockProc1,Block1,101,,,End - ?,,49,,,,,beggining,5392,,,recallproc1
D_JOL C 2,139,1,BlockProc1,Block1,102,,,Round - ?,,60,,,,,circle,7386,,,recallproc1
D_JOL C 2,139,1,BlockProc1,Block1,103,,,Bad - ?,,21,,,,,good,4002,,,recallproc1
D_JOL C 2,139,1,BlockProc1,Block1,104,,,Clutter - ?,,61,,,,,clean,8062,,,recallproc1
D_JOL C 2,139,1,BlockProc1,Block1,105,,,Tuck - ?,,73,,,,,fold,3394,,,recallproc1
D_JOL C 2,139,1,BlockProc1,Block1,106,,,Cold - ?,,27,,,,,warm,4774,,,recallproc1
D_JOL C 2,139,1,BlockProc1,Block1,107,,,Bronze - ?,,69,,,,,tough,5681,,,recallproc1
D_JOL C 2,139,1,BlockProc1,Block1,108,,,Enough - ?,,1,,,,,more,4472,,,recallproc1
D_JOL C 2,139,1,BlockProc1,Block1,109,,,Toilet - ?,,53,,,,,water,5776,,,recallproc1
D_JOL C 2,139,1,BlockProc1,Block1,110,,,Belt - ?,,65,,,,,brown,8842,,,recallproc1
D_JOL C 2,139,1,BlockProc1,Block1,111,,,Dog - ?,,30,,,,,food,2975,,,recallproc1
D_JOL C 2,139,1,BlockProc1,Block1,112,,,Hungry - ?,,63,,,,,empty,7188,,,recallproc1
D_JOL C 2,139,1,BlockProc1,Block1,113,,,Jury - ?,,45,,,,,silent,7397,,,recallproc1
D_JOL C 2,139,1,BlockProc1,Block1,114,,,Growth - ?,,5,,,,,big,4445,,,recallproc1
D_JOL C 2,139,1,BlockProc1,Block1,115,,,Would - ?,,78,,,,,take,7758,,,recallproc1
D_JOL C 2,139,1,BlockProc1,Block1,116,,,Bar - ?,,47,,,,,jump,6383,,,recallproc1
D_JOL C 2,139,1,BlockProc1,Block1,117,,,Sip - ?,,2,,,,,drink,5017,,,recallproc1
D_JOL C 2,139,1,BlockProc1,Block1,118,,,Chili - ?,,12,,,,,hot,4162,,,recallproc1
D_JOL C 2,139,1,BlockProc1,Block1,119,,,Racket - ?,,13,,,,,ball,5295,,,recallproc1
D_JOL C 2,139,1,BlockProc1,Block1,120,,,Cave - ?,,3,,,,,chore,3821,,,recallproc1
D_JOL C 2,139,1,BlockProc1,Block1,121,,,Drowsy - ?,,16,,,,,awaake,4943,,,recallproc1
D_JOL C 2,139,1,BlockProc1,Block1,122,,,Stench - ?,,17,,,,,smell,3283,,,recallproc1
D_JOL C 2,139,1,BlockProc1,Block1,123,,,Business - ?,,67,,,,,bad,8276,,,recallproc1
D_JOL C 2,139,1,BlockProc1,Block1,124,,,Latch - ?,,11,,,,,lever,6192,,,recallproc1
D_JOL C 2,139,1,BlockProc1,Block1,125,,,Lion - ?,,74,,,,,cat,5065,,,recallproc1
D_JOL C 2,139,1,BlockProc1,Block1,126,,,Assignment - ?,,42,,,,,due,3656,,,recallproc1
D_JOL C 2,139,1,BlockProc1,Block1,127,,,Famine - ?,,15,,,,,hunger,6689,,,recallproc1
D_JOL C 2,139,1,BlockProc1,Block1,128,,,Position - ?,,71,,,,,year,6639,,,recallproc1
D_JOL C 2,139,1,BlockProc1,Block1,129,,,Pilot - ?,,19,,,,,driver,3270,,,recallproc1
D_JOL C 2,139,1,BlockProc1,Block1,130,,,Plant - ?,,28,,,,,gree,4855,,,recallproc1
D_JOL C 2,139,1,BlockProc1,Block1,131,,,Sight - ?,,68,,,,,song,3695,,,recallproc1
D_JOL C 2,139,1,BlockProc1,Block1,132,,,Flower - ?,,39,,,,,leaf,3679,,,recallproc1
D_JOL C 2,139,1,BlockProc1,Block1,133,,,Attorney - ?,,9,,,,,general,3839,,,recallproc1
D_JOL C 2,139,1,BlockProc1,Block1,134,,,Amount - ?,,41,,,,,more,8145,,,recallproc1
D_JOL C 2,139,1,BlockProc1,Block1,135,,,Car - ?,,72,,,,,ride,3650,,,recallproc1
D_JOL C 2,139,1,BlockProc1,Block1,136,,,War - ?,,35,,,,,happiness,6595,,,recallproc1
D_JOL C 2,139,1,BlockProc1,Block1,137,,,Wasp - ?,,7,,,,,sting,2988,,,recallproc1
D_JOL C 2,139,1,BlockProc1,Block1,138,,,Hand - ?,,70,,,,,hold,2328,,,recallproc1
D_JOL C 2,139,1,BlockProc1,Block1,139,,,Out - ?,,31,,,,,from,3272,,,recallproc1
D_JOL C 2,139,1,BlockProc1,Block1,140,,,Clean - ?,,32,,,,,chore,7010,,,recallproc1
D_JOL C 2,139,1,BlockProc1,Block1,141,,,Add - ?,,77,,,,,less,4248,,,recallproc1
D_JOL C 2,139,1,BlockProc1,Block1,142,,,Soda - ?,,51,,,,,pop,1969,,,recallproc1
D_JOL C 2,139,1,BlockProc1,Block1,143,,,Woman - ?,,64,,,,,girl,8079,,,recallproc1
D_JOL C 2,139,1,BlockProc1,Block1,144,,,Division - ?,,8,,,,,from,8907,,,recallproc1
D_JOL C 2,139,1,BlockProc1,Block1,145,,,Fish - ?,,40,,,,,tail,3846,,,recallproc1
D_JOL C 2,139,1,BlockProc1,Block1,146,,,Water- ?,,33,,,,,flow,6279,,,recallproc1
D_JOL C 2,139,1,BlockProc1,Block1,147,,,Stomach - ?,,22,,,,,acid,5557,,,recallproc1
D_JOL C 2,139,1,BlockProc1,Block1,148,,,Decision - ?,,54,,,,,making,4168,,,recallproc1
D_JOL C 2,139,1,BlockProc1,Block1,149,,,Design - ?,,46,,,,,idea,7212,,,recallproc1
D_JOL C 2,139,1,BlockProc1,Block1,150,,,Future - ?,,56,,,,,past,3308,,,recallproc1
D_JOL C 2,139,1,BlockProc1,Block1,151,,,Word - ?,,6,,,,,phrase,3451,,,recallproc1
D_JOL C 2,139,1,BlockProc1,Block1,152,,,Site - ?,,43,,,,,mai,5949,,,recallproc1
D_JOL C 2,139,1,BlockProc1,Block1,153,,,Talk - ?,,36,,,,,speak,7672,,,recallproc1
D_JOL C 2,139,1,BlockProc1,Block1,154,,,Wind - ?,,50,,,,,chime,4309,,,recallproc1
D_JOL C 2,139,1,BlockProc1,Block1,155,,,News - ?,,25,,,,,fake,5412,,,recallproc1
D_JOL C 2,139,1,BlockProc1,Block1,156,,,Accident - ?,,75,,,,,report,2493,,,recallproc1
D_JOL C 2,139,1,BlockProc1,Block1,157,,,Rock - ?,,34,,,,,bottom,5574,,,recallproc1
D_JOL C 2,139,1,BlockProc1,Block1,158,,,Cheese - ?,,52,,,,,string,9920,,,recallproc1
D_JOL C 2,139,1,BlockProc1,Block1,159,,,Child - ?,,59,,,,,kid,5489,,,recallproc1
D_JOL C 2,139,1,BlockProc1,Block1,160,,,Sacking - ?,,62,,,,,leaving,7815,,,recallproc1
D_JOL C 2,139,1,BlockProc1,Block1,161,,,Sting - ?,,26,,,,,wasp,5310,,,recallproc1
D_JOL C 2,139,1,BlockProc1,Block1,162,,,Hammer - ?,,24,,,,,nail,7435,,,recallproc1
D_JOL C 2,139,1,BlockProc1,Block1,163,,,Seize - ?,,4,,,,,run,6025,,,recallproc1
D_JOL C 2,139,1,BlockProc1,Block1,164,,,Waste - ?,,44,,,,,timr,3657,,,recallproc1
D_JOL C 2,139,1,BlockProc1,Block1,165,,,Foot - ?,,55,,,,,shoe,9474,,,recallproc1
D_JOL C 2,139,1,BlockProc1,Block1,166,,,Attire - ?,,18,,,,,dres,4774,,,recallproc1
D_JOL C 2,139,1,BlockProc1,Block1,167,,,Riddle - ?,,76,,,,,rhyme,3369,,,recallproc1
D_JOL C 2,139,1,BlockProc1,Block1,168,,,Money - ?,,23,,,,,wealth,4198,,,recallproc1
D_JOL C 2,139,1,BlockProc1,Block1,169,,,Blaze - ?,,20,,,,,fire,2289,,,recallproc1
D_JOL C 2,139,1,BlockProc1,Block1,170,,,Vase - ?,,80,,,,,tme,3938,,,recallproc1
D_JOL C 2,139,1,BlockProc2,Block2,1,,,Essay - Write,,4,,,,,,,,,StudyProc4
D_JOL C 2,139,1,BlockProc2,Block2,2,,,Disintegrate - Disappear,,3,,,,,,,,,StudyProc4
D_JOL C 2,139,1,BlockProc2,Block2,3,,,Malt - Chocolate,,5,,,,,,,,,StudyProc4
D_JOL C 2,139,1,BlockProc2,Block2,4,,,Hide - Scare,,2,,,,,,,,,StudyProc4
D_JOL C 2,139,1,BlockProc2,Block2,5,,,Sheriff - Police,,1,,,,,,,,,StudyProc4
D_JOL C 2,139,1,BlockProc2,Block2,6,,70,Bang - Fuzzy,U,70,,,90,2969,,,,,StudyProc5
D_JOL C 2,139,1,BlockProc2,Block2,7,,6,Thimble - Thread,F,6,,,90,3313,,,,,StudyProc5
D_JOL C 2,139,1,BlockProc2,Block2,8,,22,Game - Clue,B,22,,,56,2846,,,,,StudyProc5
D_JOL C 2,139,1,BlockProc2,Block2,9,,4,Penguin - Bird,F,4,,,45,3731,,,,,StudyProc5
D_JOL C 2,139,1,BlockProc2,Block2,10,,74,Late - Early,U,74,,,90,1584,,,,,StudyProc5
D_JOL C 2,139,1,BlockProc2,Block2,11,,20,Brawl - Fight,F,20,,,95,4393,,,,,StudyProc5
D_JOL C 2,139,1,BlockProc2,Block2,12,,32,Donkey - Mule,B,32,,,90,2130,,,,,StudyProc5
D_JOL C 2,139,1,BlockProc2,Block2,13,,76,Sign - Loan,U,76,,,50,2872,,,,,StudyProc5
D_JOL C 2,139,1,BlockProc2,Block2,14,,14,Aircraft - Plane,F,14,,,80,2368,,,,,StudyProc5
D_JOL C 2,139,1,BlockProc2,Block2,15,,26,Dog - Furry,B,26,,,65,4313,,,,,StudyProc5
D_JOL C 2,139,1,BlockProc2,Block2,16,,1,Flip - Turn,F,1,,,55,2447,,,,,StudyProc5
D_JOL C 2,139,1,BlockProc2,Block2,17,,12,Breakable - Glass,F,12,,,76,4326,,,,,StudyProc5
D_JOL C 2,139,1,BlockProc2,Block2,18,,57,Have - Own,S,57,,,30,11230,,,,,StudyProc5
D_JOL C 2,139,1,BlockProc2,Block2,19,,30,Car - Driver,B,30,,,70,3474,,,,,StudyProc5
D_JOL C 2,139,1,BlockProc2,Block2,20,,51,Seatbelt - Safety,S,51,,,90,1630,,,,,StudyProc5
D_JOL C 2,139,1,BlockProc2,Block2,21,,47,Away - Gone,S,47,,,90,2022,,,,,StudyProc5
D_JOL C 2,139,1,BlockProc2,Block2,22,,46,Carbon - Element,S,46,,,90,4862,,,,,StudyProc5
D_JOL C 2,139,1,BlockProc2,Block2,23,,43,Jar - Mason,S,43,,,90,2329,,,,,StudyProc5
D_JOL C 2,139,1,BlockProc2,Block2,24,,64,Obtain - Meat,U,64,,,56,3912,,,,,StudyProc5
D_JOL C 2,139,1,BlockProc2,Block2,25,,53,Communication - Phone,S,53,,,50,2269,,,,,StudyProc5
D_JOL C 2,139,1,BlockProc2,Block2,26,,33,Paper - Document,B,33,,,75,2614,,,,,StudyProc5
D_JOL C 2,139,1,BlockProc2,Block2,27,,71,Clear - Moat,U,71,,,0,1626,,,,,StudyProc5
D_JOL C 2,139,1,BlockProc2,Block2,28,,75,Toil - Lease,U,75,,,55,4543,,,,,StudyProc5
D_JOL C 2,139,1,BlockProc2,Block2,29,,17,Banker - Money,F,17,,,75,3556,,,,,StudyProc5
D_JOL C 2,139,1,BlockProc2,Block2,30,,11,Panther - Cat,F,11,,,80,2180,,,,,StudyProc5
D_JOL C 2,139,1,BlockProc2,Block2,31,,50,Lonely - Alone,S,50,,,100,2378,,,,,StudyProc5
D_JOL C 2,139,1,BlockProc2,Block2,32,,79,Children - Mirror,U,79,,,56,3304,,,,,StudyProc5
D_JOL C 2,139,1,BlockProc2,Block2,33,,61,Cloth - Stretch,U,61,,,65,3235,,,,,StudyProc5
D_JOL C 2,139,1,BlockProc2,Block2,34,,23,Tie - Shoelace,B,23,,,45,4058,,,,,StudyProc5
D_JOL C 2,139,1,BlockProc2,Block2,35,,36,Scissors - Shears,B,36,,,3,2868,,,,,StudyProc5
D_JOL C 2,139,1,BlockProc2,Block2,36,,2,Windshield - Car,F,2,,,75,3861,,,,,StudyProc5
D_JOL C 2,139,1,BlockProc2,Block2,37,,9,Strawberry - Fruit,F,9,,,75,2027,,,,,StudyProc5
D_JOL C 2,139,1,BlockProc2,Block2,38,,15,Sardine - Fish,F,15,,,55,3180,,,,,StudyProc5
D_JOL C 2,139,1,BlockProc2,Block2,39,,52,Lie - Truth,S,52,,,75,3062,,,,,StudyProc5
D_JOL C 2,139,1,BlockProc2,Block2,40,,31,Cut - Chop,B,31,,,75,2243,,,,,StudyProc5
D_JOL C 2,139,1,BlockProc2,Block2,41,,38,Plant - Cactus,B,38,,,50,5295,,,,,StudyProc5
D_JOL C 2,139,1,BlockProc2,Block2,42,,8,Balloon - Pop,F,8,,,60,3600,,,,,StudyProc5
D_JOL C 2,139,1,BlockProc2,Block2,43,,48,Drink - Water,S,48,,,75,1235,,,,,StudyProc5
D_JOL C 2,139,1,BlockProc2,Block2,44,,72,Wet - Dry,S,72,,,75,1469,,,,,StudyProc5
D_JOL C 2,139,1,BlockProc2,Block2,45,,49,Ground - Earth,S,49,,,68,3801,,,,,StudyProc5
D_JOL C 2,139,1,BlockProc2,Block2,46,,78,Morning - Temperature,U,78,,,80,2205,,,,,StudyProc5
D_JOL C 2,139,1,BlockProc2,Block2,47,,80,Main - Scar,U,80,,,40,2623,,,,,StudyProc5
D_JOL C 2,139,1,BlockProc2,Block2,48,,58,Temper - Tantrum,S,58,,,10,12424,,,,,StudyProc5
D_JOL C 2,139,1,BlockProc2,Block2,49,,40,Love - Affection,B,40,,,45,7210,,,,,StudyProc5
D_JOL C 2,139,1,BlockProc2,Block2,50,,66,Shake - Shell,U,66,,,85,4500,,,,,StudyProc5
D_JOL C 2,139,1,BlockProc2,Block2,51,,69,Hate - Name,U,69,,,85,3951,,,,,StudyProc5
D_JOL C 2,139,1,BlockProc2,Block2,52,,34,Smell - Incense,B,34,,,60,3346,,,,,StudyProc5
D_JOL C 2,139,1,BlockProc2,Block2,53,,21,Long - Extension,B,21,,,50,6035,,,,,StudyProc5
D_JOL C 2,139,1,BlockProc2,Block2,54,,27,Trash - Litter,B,27,,,80,3811,,,,,StudyProc5
D_JOL C 2,139,1,BlockProc2,Block2,55,,68,Joke - Keys,U,68,,,65,4227,,,,,StudyProc5
D_JOL C 2,139,1,BlockProc2,Block2,56,,16,League - Baseball,F,16,,,50,5359,,,,,StudyProc5
D_JOL C 2,139,1,BlockProc2,Block2,57,,45,Bracelet - Wrist,S,45,,,50,3075,,,,,StudyProc5
D_JOL C 2,139,1,BlockProc2,Block2,58,,56,Noise - Loud,S,56,,,76,2748,,,,,StudyProc5
D_JOL C 2,139,1,BlockProc2,Block2,59,,44,Wax - Candle,S,44,,,70,3598,,,,,StudyProc5
D_JOL C 2,139,1,BlockProc2,Block2,60,,7,Revenge - Even,F,7,,,60,8482,,,,,StudyProc5
D_JOL C 2,139,1,BlockProc2,Block2,61,,39,Cold - Chill,B,39,,,85,3536,,,,,StudyProc5
D_JOL C 2,139,1,BlockProc2,Block2,62,,60,Maroon - Justice,U,60,,,65,3484,,,,,StudyProc5
D_JOL C 2,139,1,BlockProc2,Block2,63,,13,Coffin - Dead,F,13,,,80,2150,,,,,StudyProc5
D_JOL C 2,139,1,BlockProc2,Block2,64,,25,End - Adjourn,B,25,,,20,5768,,,,,StudyProc5
D_JOL C 2,139,1,BlockProc2,Block2,65,,73,Steak - Give,U,73,,,85,3922,,,,,StudyProc5
D_JOL C 2,139,1,BlockProc2,Block2,66,,28,Red - Cherry,B,28,,,75,4359,,,,,StudyProc5
D_JOL C 2,139,1,BlockProc2,Block2,67,,35,Eat - Dine,B,35,,,65,2679,,,,,StudyProc5
D_JOL C 2,139,1,BlockProc2,Block2,68,,63,Charm - Vehicle,U,63,,,50,1827,,,,,StudyProc5
D_JOL C 2,139,1,BlockProc2,Block2,69,,18,Truthful - Honest,F,18,,,30,4605,,,,,StudyProc5
D_JOL C 2,139,1,BlockProc2,Block2,70,,37,Fight - Feud,B,37,,,50,2912,,,,,StudyProc5
D_JOL C 2,139,1,BlockProc2,Block2,71,,67,Fiction - Listen,U,67,,,60,3925,,,,,StudyProc5
D_JOL C 2,139,1,BlockProc2,Block2,72,,24,Mystery - Detective,B,24,,,50,2942,,,,,StudyProc5
D_JOL C 2,139,1,BlockProc2,Block2,73,,29,Head - Scalp,B,29,,,60,5042,,,,,StudyProc5
D_JOL C 2,139,1,BlockProc2,Block2,74,,54,Reel - Rod,S,54,,,70,3512,,,,,StudyProc5
D_JOL C 2,139,1,BlockProc2,Block2,75,,62,Election - Maze,U,62,,,50,4558,,,,,StudyProc5
D_JOL C 2,139,1,BlockProc2,Block2,76,,77,Ounce - Both,U,77,,,75,3569,,,,,StudyProc5
D_JOL C 2,139,1,BlockProc2,Block2,77,,55,Tick - Flea,S,55,,,65,4143,,,,,StudyProc5
D_JOL C 2,139,1,BlockProc2,Block2,78,,65,Able - Crackle,U,65,,,75,5017,,,,,StudyProc5
D_JOL C 2,139,1,BlockProc2,Block2,79,,59,Tan - Sun,S,59,,,,966,,,,,StudyProc5
D_JOL C 2,139,1,BlockProc2,Block2,80,,19,Nap - Sleep,F,19,,,60,6522,,,,,StudyProc5
D_JOL C 2,139,1,BlockProc2,Block2,81,,10,Favorite - Best,F,10,,,60,2698,,,,,StudyProc5
D_JOL C 2,139,1,BlockProc2,Block2,82,,42,Equal - Rights,S,42,,,90,4500,,,,,StudyProc5
D_JOL C 2,139,1,BlockProc2,Block2,83,,41,Shave - Razor,S,41,,,90,2161,,,,,StudyProc5
D_JOL C 2,139,1,BlockProc2,Block2,84,,3,Villain - Bad,F,3,,,80,3460,,,,,StudyProc5
D_JOL C 2,139,1,BlockProc2,Block2,85,,5,Actress - Star,F,5,,,60,3720,,,,,StudyProc5
D_JOL C 2,139,1,BlockProc2,Block2,86,,,Deciet - Cheat,,1,,,,,,,,,StudyProc6
D_JOL C 2,139,1,BlockProc2,Block2,87,,,Contest - Competition,,5,,,,,,,,,StudyProc6
D_JOL C 2,139,1,BlockProc2,Block2,88,,,Deaf - Hear,,3,,,,,,,,,StudyProc6
D_JOL C 2,139,1,BlockProc2,Block2,89,,,Magician - Magic,,4,,,,,,,,,StudyProc6
D_JOL C 2,139,1,BlockProc2,Block2,90,,,Mind - Matter,,2,,,,,,,,,StudyProc6
D_JOL C 2,139,1,BlockProc2,Block2,91,,,Morning - ?,,78,,,,,,,person,6990,recallproc2
D_JOL C 2,139,1,BlockProc2,Block2,92,,,Windsield - ?,,2,,,,,,,bug,4255,recallproc2
D_JOL C 2,139,1,BlockProc2,Block2,93,,,Obtain - ?,,66,,,,,,,more,2704,recallproc2
D_JOL C 2,139,1,BlockProc2,Block2,94,,,Brawl - ?,,20,,,,,,,fight,3743,recallproc2
D_JOL C 2,139,1,BlockProc2,Block2,95,,,Mystery - ?,,25,,,,,,,machine,8589,recallproc2
D_JOL C 2,139,1,BlockProc2,Block2,96,,,Shave - ?,,41,,,,,,,razor,3604,recallproc2
D_JOL C 2,139,1,BlockProc2,Block2,97,,,Charm - ?,,65,,,,,,,spell,5207,recallproc2
D_JOL C 2,139,1,BlockProc2,Block2,98,,,Nap - ?,,19,,,,,,,time,4496,recallproc2
D_JOL C 2,139,1,BlockProc2,Block2,99,,,Ground - ?,,49,,,,,,,olid,8703,recallproc2
D_JOL C 2,139,1,BlockProc2,Block2,100,,,Game - ?,,22,,,,,,,win,4162,recallproc2
D_JOL C 2,139,1,BlockProc2,Block2,101,,,Main - ?,,80,,,,,,,task,9974,recallproc2
D_JOL C 2,139,1,BlockProc2,Block2,102,,,Trash - ?,,28,,,,,,,board,7246,recallproc2
D_JOL C 2,139,1,BlockProc2,Block2,103,,,Love - ?,,40,,,,,,,heart,5780,recallproc2
D_JOL C 2,139,1,BlockProc2,Block2,104,,,Truthful - ?,,18,,,,,,,speak,7141,recallproc2
D_JOL C 2,139,1,BlockProc2,Block2,105,,,Noise - ?,,57,,,,,,,loud,3895,recallproc2
D_JOL C 2,139,1,BlockProc2,Block2,106,,,Maroon - ?,,61,,,,,,,,12496,recallproc2
D_JOL C 2,139,1,BlockProc2,Block2,107,,,Bang - ?,,73,,,,,,,sound,5878,recallproc2
D_JOL C 2,139,1,BlockProc2,Block2,108,,,Equal - ?,,42,,,,,,,rights,3484,recallproc2
D_JOL C 2,139,1,BlockProc2,Block2,109,,,Away - ?,,47,,,,,,,from,2797,recallproc2
D_JOL C 2,139,1,BlockProc2,Block2,110,,,Wet - ?,,51,,,,,,,water,8626,recallproc2
D_JOL C 2,139,1,BlockProc2,Block2,111,,,Drink - ?,,48,,,,,,,spda,3528,recallproc2
D_JOL C 2,139,1,BlockProc2,Block2,112,,,Flip - ?,,1,,,,,,,side,3454,recallproc2
D_JOL C 2,139,1,BlockProc2,Block2,113,,,Children - ?,,79,,,,,,,school,4928,recallproc2
D_JOL C 2,139,1,BlockProc2,Block2,114,,,Red - ?,,29,,,,,,,cherry,4061,recallproc2
D_JOL C 2,139,1,BlockProc2,Block2,115,,,Bracelet - ?,,45,,,,,,,arm,4166,recallproc2
D_JOL C 2,139,1,BlockProc2,Block2,116,,,Hate - ?,,72,,,,,,,crime,3490,recallproc2
D_JOL C 2,139,1,BlockProc2,Block2,117,,,Cloth - ?,,62,,,,,,,stretch,4930,recallproc2
D_JOL C 2,139,1,BlockProc2,Block2,118,,,Communication - ?,,54,,,,,,,process,7703,recallproc2
D_JOL C 2,139,1,BlockProc2,Block2,119,,,Actress - ?,,5,,,,,,,star,3667,recallproc2
D_JOL C 2,139,1,BlockProc2,Block2,120,,,End - ?,,26,,,,,,,beggiing,11156,recallproc2
D_JOL C 2,139,1,BlockProc2,Block2,121,,,Sign - ?,,76,,,,,,,up,2818,recallproc2
D_JOL C 2,139,1,BlockProc2,Block2,122,,,Joke - ?,,70,,,,,,,laugh,6302,recallproc2
D_JOL C 2,139,1,BlockProc2,Block2,123,,,Scissors - ?,,37,,,,,,,shears,5131,recallproc2
D_JOL C 2,139,1,BlockProc2,Block2,124,,,Donkey - ?,,33,,,,,,,kick,3855,recallproc2
D_JOL C 2,139,1,BlockProc2,Block2,125,,,Head - ?,,30,,,,,,,neck,8472,recallproc2
D_JOL C 2,139,1,BlockProc2,Block2,126,,,Steak - ?,,63,,,,,,,eat,2388,recallproc2
D_JOL C 2,139,1,BlockProc2,Block2,127,,,Cold - ?,,39,,,,,,,feet,2665,recallproc2
D_JOL C 2,139,1,BlockProc2,Block2,128,,,Favorite - ?,,10,,,,,,,interest,7891,recallproc2
D_JOL C 2,139,1,BlockProc2,Block2,129,,,Ounce - ?,,77,,,,,,,before,3751,recallproc2
D_JOL C 2,139,1,BlockProc2,Block2,130,,,Car - ?,,31,,,,,,,bike,5941,recallproc2
D_JOL C 2,139,1,BlockProc2,Block2,131,,,Banker - ?,,17,,,,,,,money,5096,recallproc2
D_JOL C 2,139,1,BlockProc2,Block2,132,,,Seatbelt - ?,,52,,,,,,,drive,3918,recallproc2
D_JOL C 2,139,1,BlockProc2,Block2,133,,,Fight - ?,,38,,,,,,,quit,5301,recallproc2
D_JOL C 2,139,1,BlockProc2,Block2,134,,,League - ?,,16,,,,,,,star,4347,recallproc2
D_JOL C 2,139,1,BlockProc2,Block2,135,,,Lie - ?,,53,,,,,,,truth,4176,recallproc2
D_JOL C 2,139,1,BlockProc2,Block2,136,,,Penguin - ?,,4,,,,,,,birf,2572,recallproc2
D_JOL C 2,139,1,BlockProc2,Block2,137,,,Toil - ?,,75,,,,,,,play,6977,recallproc2
D_JOL C 2,139,1,BlockProc2,Block2,138,,,Dog - ?,,27,,,,,,,fd,5866,recallproc2
D_JOL C 2,139,1,BlockProc2,Block2,139,,,Lonely - ?,,50,,,,,,,sad,2881,recallproc2
D_JOL C 2,139,1,BlockProc2,Block2,140,,,Temper - ?,,58,,,,,,,angr,7130,recallproc2
D_JOL C 2,139,1,BlockProc2,Block2,141,,,Panther - ?,,11,,,,,,,cat,8757,recallproc2
D_JOL C 2,139,1,BlockProc2,Block2,142,,,Election - ?,,64,,,,,,,car,5182,recallproc2
D_JOL C 2,139,1,BlockProc2,Block2,143,,,Long - ?,,21,,,,,,,run,5448,recallproc2
D_JOL C 2,139,1,BlockProc2,Block2,144,,,Eat - ?,,36,,,,,,,sleep,3824,recallproc2
D_JOL C 2,139,1,BlockProc2,Block2,145,,,Tie - ?,,24,,,,,,,shpelace,6266,recallproc2
D_JOL C 2,139,1,BlockProc2,Block2,146,,,Tick - ?,,56,,,,,,,bug,5793,recallproc2
D_JOL C 2,139,1,BlockProc2,Block2,147,,,Reel - ?,,55,,,,,,,rod,8450,recallproc2
D_JOL C 2,139,1,BlockProc2,Block2,148,,,Fiction - ?,,69,,,,,,,fan,3903,recallproc2
D_JOL C 2,139,1,BlockProc2,Block2,149,,,Have - ?,,59,,,,,,,hive,3959,recallproc2
D_JOL C 2,139,1,BlockProc2,Block2,150,,,Able - ?,,67,,,,,,,can,3227,recallproc2
D_JOL C 2,139,1,BlockProc2,Block2,151,,,Plant - ?,,23,,,,,,,animal,4350,recallproc2
D_JOL C 2,139,1,BlockProc2,Block2,152,,,Clear - ?,,74,,,,,,,clean,3779,recallproc2
D_JOL C 2,139,1,BlockProc2,Block2,153,,,Balloon - ?,,8,,,,,,,pop,3991,recallproc2
D_JOL C 2,139,1,BlockProc2,Block2,154,,,Smell - ?,,35,,,,,,,stench,4779,recallproc2
D_JOL C 2,139,1,BlockProc2,Block2,155,,,Tan - ?,,60,,,,,,,sun,3550,recallproc2
D_JOL C 2,139,1,BlockProc2,Block2,156,,,Cut - ?,,32,,,,,,,scissors,4699,recallproc2
D_JOL C 2,139,1,BlockProc2,Block2,157,,,Carbon - ?,,46,,,,,,,gas,4186,recallproc2
D_JOL C 2,139,1,BlockProc2,Block2,158,,,Paper - ?,,34,,,,,,,cut,4718,recallproc2
D_JOL C 2,139,1,BlockProc2,Block2,159,,,Clothes - ?,,71,,,,,,,stretch,4044,recallproc2
D_JOL C 2,139,1,BlockProc2,Block2,160,,,Aircraft - ?,,14,,,,,,,plane,5061,recallproc2
D_JOL C 2,139,1,BlockProc2,Block2,161,,,Villian - ?,,3,,,,,,,evil,3917,recallproc2
D_JOL C 2,139,1,BlockProc2,Block2,162,,,Coffin - ?,,13,,,,,,,death,3603,recallproc2
D_JOL C 2,139,1,BlockProc2,Block2,163,,,Jar - ?,,43,,,,,,,jam,6183,recallproc2
D_JOL C 2,139,1,BlockProc2,Block2,164,,,Revenge - ?,,7,,,,,,,evil,3345,recallproc2
D_JOL C 2,139,1,BlockProc2,Block2,165,,,Strawberry - ?,,9,,,,,,,fruit,6255,recallproc2
D_JOL C 2,139,1,BlockProc2,Block2,166,,,Shake - ?,,68,,,,,,,back,5518,recallproc2
D_JOL C 2,139,1,BlockProc2,Block2,167,,,Thimble - ?,,6,,,,,,,arn,11651,recallproc2
D_JOL C 2,139,1,BlockProc2,Block2,168,,,Sardine - ?,,15,,,,,,,fish,4725,recallproc2
D_JOL C 2,139,1,BlockProc2,Block2,169,,,Breakable - ?,,12,,,,,,,glass,5130,recallproc2
D_JOL C 2,139,1,BlockProc2,Block2,170,,,Wax - ?,,44,,,,,,,candle,7535,recallproc2
D_JOL D 2,136,1,BlockProc2,Block2,1,,,Disintegrate - Disappear,,3,,,,,,,,,StudyProc4
D_JOL D 2,136,1,BlockProc2,Block2,2,,,Sheriff - Police,,1,,,,,,,,,StudyProc4
D_JOL D 2,136,1,BlockProc2,Block2,3,,,Hide - Scare,,2,,,,,,,,,StudyProc4
D_JOL D 2,136,1,BlockProc2,Block2,4,,,Essay - Write,,4,,,,,,,,,StudyProc4
D_JOL D 2,136,1,BlockProc2,Block2,5,,,Malt - Chocolate,,5,,,,,,,,,StudyProc4
D_JOL D 2,136,1,BlockProc2,Block2,6,,33,Paper - Document,B,33,,,50,6207,,,,,StudyProc5
D_JOL D 2,136,1,BlockProc2,Block2,7,,44,Wax - Candle,S,44,,,100,3607,,,,,StudyProc5
D_JOL D 2,136,1,BlockProc2,Block2,8,,8,Balloon - Pop,F,8,,,100,3512,,,,,StudyProc5
D_JOL D 2,136,1,BlockProc2,Block2,9,,79,Children - Mirror,U,79,,,25,4654,,,,,StudyProc5
D_JOL D 2,136,1,BlockProc2,Block2,10,,47,Away - Gone,S,47,,,100,3585,,,,,StudyProc5
D_JOL D 2,136,1,BlockProc2,Block2,11,,39,Cold - Chill,B,39,,,100,2785,,,,,StudyProc5
D_JOL D 2,136,1,BlockProc2,Block2,12,,51,Seatbelt - Safety,S,51,,,100,4284,,,,,StudyProc5
D_JOL D 2,136,1,BlockProc2,Block2,13,,26,Dog - Furry,B,26,,,90,4492,,,,,StudyProc5
D_JOL D 2,136,1,BlockProc2,Block2,14,,55,Tick - Flea,S,55,,,100,3342,,,,,StudyProc5
D_JOL D 2,136,1,BlockProc2,Block2,15,,66,Shake - Shell,U,66,,,75,3637,,,,,StudyProc5
D_JOL D 2,136,1,BlockProc2,Block2,16,,35,Eat - Dine,B,35,,,90,4265,,,,,StudyProc5
D_JOL D 2,136,1,BlockProc2,Block2,17,,73,Steak - Give,U,73,,,50,2856,,,,,StudyProc5
D_JOL D 2,136,1,BlockProc2,Block2,18,,17,Banker - Money,F,17,,,50,2956,,,,,StudyProc5
D_JOL D 2,136,1,BlockProc2,Block2,19,,71,Clear - Moat,U,71,,,100,4073,,,,,StudyProc5
D_JOL D 2,136,1,BlockProc2,Block2,20,,4,Penguin - Bird,F,4,,,100,3678,,,,,StudyProc5
D_JOL D 2,136,1,BlockProc2,Block2,21,,24,Mystery - Detective,B,24,,,75,4205,,,,,StudyProc5
D_JOL D 2,136,1,BlockProc2,Block2,22,,53,Communication - Phone,S,53,,,100,4299,,,,,StudyProc5
D_JOL D 2,136,1,BlockProc2,Block2,23,,64,Obtain - Meat,U,64,,,50,3096,,,,,StudyProc5
D_JOL D 2,136,1,BlockProc2,Block2,24,,13,Coffin - Dead,F,13,,,100,4230,,,,,StudyProc5
D_JOL D 2,136,1,BlockProc2,Block2,25,,30,Car - Driver,B,30,,,100,3268,,,,,StudyProc5
D_JOL D 2,136,1,BlockProc2,Block2,26,,72,Wet - Dry,S,72,,,100,2483,,,,,StudyProc5
D_JOL D 2,136,1,BlockProc2,Block2,27,,11,Panther - Cat,F,11,,,75,4797,,,,,StudyProc5
D_JOL D 2,136,1,BlockProc2,Block2,28,,2,Windshield - Car,F,2,,,0,4463,,,,,StudyProc5
D_JOL D 2,136,1,BlockProc2,Block2,29,,37,Fight - Feud,B,37,,,100,2650,,,,,StudyProc5
D_JOL D 2,136,1,BlockProc2,Block2,30,,62,Election - Maze,U,62,,,50,3563,,,,,StudyProc5
D_JOL D 2,136,1,BlockProc2,Block2,31,,63,Charm - Vehicle,U,63,,,70,7093,,,,,StudyProc5
D_JOL D 2,136,1,BlockProc2,Block2,32,,69,Hate - Name,U,69,,,100,2710,,,,,StudyProc5
D_JOL D 2,136,1,BlockProc2,Block2,33,,28,Red - Cherry,B,28,,,100,3687,,,,,StudyProc5
D_JOL D 2,136,1,BlockProc2,Block2,34,,21,Long - Extension,B,21,,,100,2877,,,,,StudyProc5
D_JOL D 2,136,1,BlockProc2,Block2,35,,38,Plant - Cactus,B,38,,,90,4026,,,,,StudyProc5
D_JOL D 2,136,1,BlockProc2,Block2,36,,23,Tie - Shoelace,B,23,,,100,3745,,,,,StudyProc5
D_JOL D 2,136,1,BlockProc2,Block2,37,,60,Maroon - Justice,U,60,,,75,5763,,,,,StudyProc5
D_JOL D 2,136,1,BlockProc2,Block2,38,,40,Love - Affection,B,40,,,100,4433,,,,,StudyProc5
D_JOL D 2,136,1,BlockProc2,Block2,39,,77,Ounce - Both,U,77,,,100,5003,,,,,StudyProc5
D_JOL D 2,136,1,BlockProc2,Block2,40,,7,Revenge - Even,F,7,,,100,4371,,,,,StudyProc5
D_JOL D 2,136,1,BlockProc2,Block2,41,,29,Head - Scalp,B,29,,,0,2953,,,,,StudyProc5
D_JOL D 2,136,1,BlockProc2,Block2,42,,65,Able - Crackle,U,65,,,100,4769,,,,,StudyProc5
D_JOL D 2,136,1,BlockProc2,Block2,43,,14,Aircraft - Plane,F,14,,,100,3569,,,,,StudyProc5
D_JOL D 2,136,1,BlockProc2,Block2,44,,6,Thimble - Thread,F,6,,,90,2481,,,,,StudyProc5
D_JOL D 2,136,1,BlockProc2,Block2,45,,75,Toil - Lease,U,75,,,90,3489,,,,,StudyProc5
D_JOL D 2,136,1,BlockProc2,Block2,46,,45,Bracelet - Wrist,S,45,,,100,3003,,,,,StudyProc5
D_JOL D 2,136,1,BlockProc2,Block2,47,,5,Actress - Star,F,5,,,100,3251,,,,,StudyProc5
D_JOL D 2,136,1,BlockProc2,Block2,48,,20,Brawl - Fight,F,20,,,100,2815,,,,,StudyProc5
D_JOL D 2,136,1,BlockProc2,Block2,49,,16,League - Baseball,F,16,,,50,4908,,,,,StudyProc5
D_JOL D 2,136,1,BlockProc2,Block2,50,,50,Lonely - Alone,S,50,,,100,3127,,,,,StudyProc5
D_JOL D 2,136,1,BlockProc2,Block2,51,,52,Lie - Truth,S,52,,,100,3332,,,,,StudyProc5
D_JOL D 2,136,1,BlockProc2,Block2,52,,10,Favorite - Best,F,10,,,100,2085,,,,,StudyProc5
D_JOL D 2,136,1,BlockProc2,Block2,53,,36,Scissors - Shears,B,36,,,100,3368,,,,,StudyProc5
D_JOL D 2,136,1,BlockProc2,Block2,54,,70,Bang - Fuzzy,U,70,,,75,3943,,,,,StudyProc5
D_JOL D 2,136,1,BlockProc2,Block2,55,,80,Main - Scar,U,80,,,100,3873,,,,,StudyProc5
D_JOL D 2,136,1,BlockProc2,Block2,56,,27,Trash - Litter,B,27,,,70,3861,,,,,StudyProc5
D_JOL D 2,136,1,BlockProc2,Block2,57,,43,Jar - Mason,S,43,,,100,2936,,,,,StudyProc5
D_JOL D 2,136,1,BlockProc2,Block2,58,,12,Breakable - Glass,F,12,,,100,4558,,,,,StudyProc5
D_JOL D 2,136,1,BlockProc2,Block2,59,,41,Shave - Razor,S,41,,,100,2306,,,,,StudyProc5
D_JOL D 2,136,1,BlockProc2,Block2,60,,59,Tan - Sun,S,59,,,100,1989,,,,,StudyProc5
D_JOL D 2,136,1,BlockProc2,Block2,61,,49,Ground - Earth,S,49,,,50,3633,,,,,StudyProc5
D_JOL D 2,136,1,BlockProc2,Block2,62,,57,Have - Own,S,57,,,0,5487,,,,,StudyProc5
D_JOL D 2,136,1,BlockProc2,Block2,63,,34,Smell - Incense,B,34,,,50,3936,,,,,StudyProc5
D_JOL D 2,136,1,BlockProc2,Block2,64,,67,Fiction - Listen,U,67,,,100,3439,,,,,StudyProc5
D_JOL D 2,136,1,BlockProc2,Block2,65,,46,Carbon - Element,S,46,,,100,2767,,,,,StudyProc5
D_JOL D 2,136,1,BlockProc2,Block2,66,,15,Sardine - Fish,F,15,,,100,2409,,,,,StudyProc5
D_JOL D 2,136,1,BlockProc2,Block2,67,,25,End - Adjourn,B,25,,,100,4666,,,,,StudyProc5
D_JOL D 2,136,1,BlockProc2,Block2,68,,54,Reel - Rod,S,54,,,100,2798,,,,,StudyProc5
D_JOL D 2,136,1,BlockProc2,Block2,69,,32,Donkey - Mule,B,32,,,100,4259,,,,,StudyProc5
D_JOL D 2,136,1,BlockProc2,Block2,70,,3,Villain - Bad,F,3,,,100,3051,,,,,StudyProc5
D_JOL D 2,136,1,BlockProc2,Block2,71,,42,Equal - Rights,S,42,,,100,2714,,,,,StudyProc5
D_JOL D 2,136,1,BlockProc2,Block2,72,,76,Sign - Loan,U,76,,,75,3081,,,,,StudyProc5
D_JOL D 2,136,1,BlockProc2,Block2,73,,22,Game - Clue,B,22,,,50,5117,,,,,StudyProc5
D_JOL D 2,136,1,BlockProc2,Block2,74,,1,Flip - Turn,F,1,,,100,3016,,,,,StudyProc5
D_JOL D 2,136,1,BlockProc2,Block2,75,,9,Strawberry - Fruit,F,9,,,100,4912,,,,,StudyProc5
D_JOL D 2,136,1,BlockProc2,Block2,76,,48,Drink - Water,S,48,,,100,4769,,,,,StudyProc5
D_JOL D 2,136,1,BlockProc2,Block2,77,,78,Morning - Temperature,U,78,,,100,4478,,,,,StudyProc5
D_JOL D 2,136,1,BlockProc2,Block2,78,,31,Cut - Chop,B,31,,,50,3535,,,,,StudyProc5
D_JOL D 2,136,1,BlockProc2,Block2,79,,74,Late - Early,U,74,,,50,4003,,,,,StudyProc5
D_JOL D 2,136,1,BlockProc2,Block2,80,,19,Nap - Sleep,F,19,,,100,3436,,,,,StudyProc5
D_JOL D 2,136,1,BlockProc2,Block2,81,,18,Truthful - Honest,F,18,,,100,2418,,,,,StudyProc5
D_JOL D 2,136,1,BlockProc2,Block2,82,,68,Joke - Keys,U,68,,,100,2431,,,,,StudyProc5
D_JOL D 2,136,1,BlockProc2,Block2,83,,61,Cloth - Stretch,U,61,,,0,4482,,,,,StudyProc5
D_JOL D 2,136,1,BlockProc2,Block2,84,,58,Temper - Tantrum,S,58,,,0,10577,,,,,StudyProc5
D_JOL D 2,136,1,BlockProc2,Block2,85,,56,Noise - Loud,S,56,,,0,5679,,,,,StudyProc5
D_JOL D 2,136,1,BlockProc2,Block2,86,,,Mind - Matter,,2,,,,,,,,,StudyProc6
D_JOL D 2,136,1,BlockProc2,Block2,87,,,Magician - Magic,,4,,,,,,,,,StudyProc6
D_JOL D 2,136,1,BlockProc2,Block2,88,,,Contest - Competition,,5,,,,,,,,,StudyProc6
D_JOL D 2,136,1,BlockProc2,Block2,89,,,Deciet - Cheat,,1,,,,,,,,,StudyProc6
D_JOL D 2,136,1,BlockProc2,Block2,90,,,Deaf - Hear,,3,,,,,,,,,StudyProc6
D_JOL D 2,136,1,BlockProc2,Block2,91,,,Banker - ?,,17,,,,,,,money,6726,recallproc2
D_JOL D 2,136,1,BlockProc2,Block2,92,,,Charm - ?,,65,,,,,,,wish,9617,recallproc2
D_JOL D 2,136,1,BlockProc2,Block2,93,,,Communication - ?,,54,,,,,,,phone,3710,recallproc2
D_JOL D 2,136,1,BlockProc2,Block2,94,,,Head - ?,,30,,,,,,,rest,18125,recallproc2
D_JOL D 2,136,1,BlockProc2,Block2,95,,,Plant - ?,,23,,,,,,,cactus,3630,recallproc2
D_JOL D 2,136,1,BlockProc2,Block2,96,,,Thimble - ?,,6,,,,,,,thread,3320,recallproc2
D_JOL D 2,136,1,BlockProc2,Block2,97,,,Penguin - ?,,4,,,,,,,bird,2863,recallproc2
D_JOL D 2,136,1,BlockProc2,Block2,98,,,Favorite - ?,,10,,,,,,,best,2225,recallproc2
D_JOL D 2,136,1,BlockProc2,Block2,99,,,End - ?,,26,,,,,,,start,5228,recallproc2
D_JOL D 2,136,1,BlockProc2,Block2,100,,,Maroon - ?,,61,,,,,,,justice,3245,recallproc2
D_JOL D 2,136,1,BlockProc2,Block2,101,,,Mystery - ?,,25,,,,,,,detective,7671,recallproc2
D_JOL D 2,136,1,BlockProc2,Block2,102,,,Equal - ?,,42,,,,,,,rights,2692,recallproc2
D_JOL D 2,136,1,BlockProc2,Block2,103,,,Away - ?,,47,,,,,,,gone,4349,recallproc2
D_JOL D 2,136,1,BlockProc2,Block2,104,,,Ounce - ?,,77,,,,,,,both,3034,recallproc2
D_JOL D 2,136,1,BlockProc2,Block2,105,,,Paper - ?,,34,,,,,,,write,5701,recallproc2
D_JOL D 2,136,1,BlockProc2,Block2,106,,,Scissors - ?,,37,,,,,,,shears,5610,recallproc2
D_JOL D 2,136,1,BlockProc2,Block2,107,,,Main - ?,,80,,,,,,,start,18939,recallproc2
D_JOL D 2,136,1,BlockProc2,Block2,108,,,Lie - ?,,53,,,,,,,truth,2490,recallproc2
D_JOL D 2,136,1,BlockProc2,Block2,109,,,Revenge - ?,,7,,,,,,,game,8003,recallproc2
D_JOL D 2,136,1,BlockProc2,Block2,110,,,Noise - ?,,57,,,,,,,loud,3050,recallproc2
D_JOL D 2,136,1,BlockProc2,Block2,111,,,Tan - ?,,60,,,,,,,sun,1893,recallproc2
D_JOL D 2,136,1,BlockProc2,Block2,112,,,Toil - ?,,75,,,,,,,tar,9302,recallproc2
D_JOL D 2,136,1,BlockProc2,Block2,113,,,Temper - ?,,58,,,,,,,tantrum,3088,recallproc2
D_JOL D 2,136,1,BlockProc2,Block2,114,,,Clear - ?,,74,,,,,,,mind,5544,recallproc2
D_JOL D 2,136,1,BlockProc2,Block2,115,,,Lonely - ?,,50,,,,,,,alone,3972,recallproc2
D_JOL D 2,136,1,BlockProc2,Block2,116,,,Tick - ?,,56,,,,,,,flea,4368,recallproc2
D_JOL D 2,136,1,BlockProc2,Block2,117,,,Brawl - ?,,20,,,,,,,fight,3700,recallproc2
D_JOL D 2,136,1,BlockProc2,Block2,118,,,Actress - ?,,5,,,,,,,star,2100,recallproc2
D_JOL D 2,136,1,BlockProc2,Block2,119,,,Breakable - ?,,12,,,,,,,glass,3085,recallproc2
D_JOL D 2,136,1,BlockProc2,Block2,120,,,Cold - ?,,39,,,,,,,hot,3079,recallproc2
D_JOL D 2,136,1,BlockProc2,Block2,121,,,Windsield - ?,,2,,,,,,,car,4663,recallproc2
D_JOL D 2,136,1,BlockProc2,Block2,122,,,Able - ?,,67,,,,,,,can,2335,recallproc2
D_JOL D 2,136,1,BlockProc2,Block2,123,,,Truthful - ?,,18,,,,,,,honest,3528,recallproc2
D_JOL D 2,136,1,BlockProc2,Block2,124,,,Donkey - ?,,33,,,,,,,mule,2069,recallproc2
D_JOL D 2,136,1,BlockProc2,Block2,125,,,Sardine - ?,,15,,,,,,,fish,2575,recallproc2
D_JOL D 2,136,1,BlockProc2,Block2,126,,,Clothes - ?,,71,,,,,,,stretch,9444,recallproc2
D_JOL D 2,136,1,BlockProc2,Block2,127,,,Shave - ?,,41,,,,,,,razor,3752,recallproc2
D_JOL D 2,136,1,BlockProc2,Block2,128,,,Coffin - ?,,13,,,,,,,dead,2774,recallproc2
D_JOL D 2,136,1,BlockProc2,Block2,129,,,Joke - ?,,70,,,,,,,funny,10635,recallproc2
D_JOL D 2,136,1,BlockProc2,Block2,130,,,Strawberry - ?,,9,,,,,,,fruit,2478,recallproc2
D_JOL D 2,136,1,BlockProc2,Block2,131,,,Nap - ?,,19,,,,,,,sleep,4408,recallproc2
D_JOL D 2,136,1,BlockProc2,Block2,132,,,Children - ?,,79,,,,,,,loud,5818,recallproc2
D_JOL D 2,136,1,BlockProc2,Block2,133,,,Dog - ?,,27,,,,,,,furry,6931,recallproc2
D_JOL D 2,136,1,BlockProc2,Block2,134,,,Trash - ?,,28,,,,,,,litter,2902,recallproc2
D_JOL D 2,136,1,BlockProc2,Block2,135,,,Bracelet - ?,,45,,,,,,,wrist,3910,recallproc2
D_JOL D 2,136,1,BlockProc2,Block2,136,,,Aircraft - ?,,14,,,,,,,plane,5597,recallproc2
D_JOL D 2,136,1,BlockProc2,Block2,137,,,Villian - ?,,3,,,,,,,evil,3023,recallproc2
D_JOL D 2,136,1,BlockProc2,Block2,138,,,Red - ?,,29,,,,,,,cherry,2666,recallproc2
D_JOL D 2,136,1,BlockProc2,Block2,139,,,Cloth - ?,,62,,,,,,,stretch,3180,recallproc2
D_JOL D 2,136,1,BlockProc2,Block2,140,,,Bang - ?,,73,,,,,,,head,7537,recallproc2
D_JOL D 2,136,1,BlockProc2,Block2,141,,,Long - ?,,21,,,,,,,extension,7371,recallproc2
D_JOL D 2,136,1,BlockProc2,Block2,142,,,Love - ?,,40,,,,,,,affection,8060,recallproc2
D_JOL D 2,136,1,BlockProc2,Block2,143,,,Seatbelt - ?,,52,,,,,,,car,2529,recallproc2
D_JOL D 2,136,1,BlockProc2,Block2,144,,,League - ?,,16,,,,,,,baseball,4808,recallproc2
D_JOL D 2,136,1,BlockProc2,Block2,145,,,Fiction - ?,,69,,,,,,,listen,3634,recallproc2
D_JOL D 2,136,1,BlockProc2,Block2,146,,,Flip - ?,,1,,,,,,,turn,2621,recallproc2
D_JOL D 2,136,1,BlockProc2,Block2,147,,,Reel - ?,,55,,,,,,,rail,5360,recallproc2
D_JOL D 2,136,1,BlockProc2,Block2,148,,,Ground - ?,,49,,,,,,,earth,3299,recallproc2
D_JOL D 2,136,1,BlockProc2,Block2,149,,,Shake - ?,,68,,,,,,,turn,8868,recallproc2
D_JOL D 2,136,1,BlockProc2,Block2,150,,,Eat - ?,,36,,,,,,,drink,5559,recallproc2
D_JOL D 2,136,1,BlockProc2,Block2,151,,,Obtain - ?,,66,,,,,,,meat,5154,recallproc2
D_JOL D 2,136,1,BlockProc2,Block2,152,,,Panther - ?,,11,,,,,,,cat,3247,recallproc2
D_JOL D 2,136,1,BlockProc2,Block2,153,,,Game - ?,,22,,,,,,,clue,4024,recallproc2
D_JOL D 2,136,1,BlockProc2,Block2,154,,,Steak - ?,,63,,,,,,,buy,7914,recallproc2
D_JOL D 2,136,1,BlockProc2,Block2,155,,,Tie - ?,,24,,,,,,,shoelace,5093,recallproc2
D_JOL D 2,136,1,BlockProc2,Block2,156,,,Wet - ?,,51,,,,,,,dry,2331,recallproc2
D_JOL D 2,136,1,BlockProc2,Block2,157,,,Drink - ?,,48,,,,,,,eat,3955,recallproc2
D_JOL D 2,136,1,BlockProc2,Block2,158,,,Fight - ?,,38,,,,,,,fued,7496,recallproc2
D_JOL D 2,136,1,BlockProc2,Block2,159,,,Sign - ?,,76,,,,,,,write,9403,recallproc2
D_JOL D 2,136,1,BlockProc2,Block2,160,,,Have - ?,,59,,,,,,,own,5097,recallproc2
D_JOL D 2,136,1,BlockProc2,Block2,161,,,Balloon - ?,,8,,,,,,,pop,3920,recallproc2
D_JOL D 2,136,1,BlockProc2,Block2,162,,,Smell - ?,,35,,,,,,,nose,4862,recallproc2
D_JOL D 2,136,1,BlockProc2,Block2,163,,,Hate - ?,,72,,,,,,,love,4526,recallproc2
D_JOL D 2,136,1,BlockProc2,Block2,164,,,Wax - ?,,44,,,,,,,candle,4196,recallproc2
D_JOL D 2,136,1,BlockProc2,Block2,165,,,Morning - ?,,78,,,,,,,early,4287,recallproc2
D_JOL D 2,136,1,BlockProc2,Block2,166,,,Election - ?,,64,,,,,,,vote,5390,recallproc2
D_JOL D 2,136,1,BlockProc2,Block2,167,,,Cut - ?,,32,,,,,,,paper,14528,recallproc2
D_JOL D 2,136,1,BlockProc2,Block2,168,,,Carbon - ?,,46,,,,,,,element,5140,recallproc2
D_JOL D 2,136,1,BlockProc2,Block2,169,,,Car - ?,,31,,,,,,,vehicle,9801,recallproc2
D_JOL D 2,136,1,BlockProc2,Block2,170,,,Jar - ?,,43,,,,,,,mason,4214,recallproc2
D_JOL D 2,136,1,BlockProc1,Block1,1,,,Snow - Ice,,3,,,,,,,,,StudyProc1
D_JOL D 2,136,1,BlockProc1,Block1,2,,,Member - Group,,5,,,,,,,,,StudyProc1
D_JOL D 2,136,1,BlockProc1,Block1,3,,,Curtain - Drapes,,2,,,,,,,,,StudyProc1
D_JOL D 2,136,1,BlockProc1,Block1,4,,,Haircut-Scissors,,1,,,,,,,,,StudyProc1
D_JOL D 2,136,1,BlockProc1,Block1,5,,,Shrimp - Fish,,4,,,,,,,,,StudyProc1
D_JOL D 2,136,1,BlockProc1,Block1,6,45,,Jury - Trial,S,45,100,2513,,,,,,,StudyProc3
D_JOL D 2,136,1,BlockProc1,Block1,7,31,,Clean - Hygiene,B,31,50,4205,,,,,,,StudyProc3
D_JOL D 2,136,1,BlockProc1,Block1,8,38,,Flower - Orchid,B,38,75,3577,,,,,,,StudyProc3
D_JOL D 2,136,1,BlockProc1,Block1,9,32,,Water - Bridge,B,32,50,8686,,,,,,,StudyProc3
D_JOL D 2,136,1,BlockProc1,Block1,10,77,,Add - Valley,U,77,0,2553,,,,,,,StudyProc3
D_JOL D 2,136,1,BlockProc1,Block1,11,43,,Site - Location,S,43,100,2851,,,,,,,StudyProc3
D_JOL D 2,136,1,BlockProc1,Block1,12,25,,Sting - Hornet,B,25,50,6775,,,,,,,StudyProc3
D_JOL D 2,136,1,BlockProc1,Block1,13,50,,Wind - Blow,S,50,100,2440,,,,,,,StudyProc3
D_JOL D 2,136,1,BlockProc1,Block1,14,56,,Future - Past,S,56,100,2299,,,,,,,StudyProc3
D_JOL D 2,136,1,BlockProc1,Block1,15,30,,Out - Way,B,30,0,8465,,,,,,,StudyProc3
D_JOL D 2,136,1,BlockProc1,Block1,16,3,,Cave - Dark,F,3,100,2726,,,,,,,StudyProc3
D_JOL D 2,136,1,BlockProc1,Block1,17,39,,Fish - Tuna,B,39,100,2160,,,,,,,StudyProc3
D_JOL D 2,136,1,BlockProc1,Block1,18,37,,Card - Credit,B,37,100,5328,,,,,,,StudyProc3
D_JOL D 2,136,1,BlockProc1,Block1,19,48,,Liver - Kidney,S,48,100,3435,,,,,,,StudyProc3
D_JOL D 2,136,1,BlockProc1,Block1,20,64,,Woman - Lift,U,64,0,1334,,,,,,,StudyProc3
D_JOL D 2,136,1,BlockProc1,Block1,21,42,,Amount - Number,S,42,0,2653,,,,,,,StudyProc3
D_JOL D 2,136,1,BlockProc1,Block1,22,53,,Toilet - Bathroom,S,53,100,1851,,,,,,,StudyProc3
D_JOL D 2,136,1,BlockProc1,Block1,23,21,,Bad - Delinquent,B,21,100,2844,,,,,,,StudyProc3
D_JOL D 2,136,1,BlockProc1,Block1,24,52,,Cheese - Wine,S,52,100,2077,,,,,,,StudyProc3
D_JOL D 2,136,1,BlockProc1,Block1,25,65,,Belt - Soon,U,65,0,3509,,,,,,,StudyProc3
D_JOL D 2,136,1,BlockProc1,Block1,26,76,,Riddle - Sugar,U,76,100,1787,,,,,,,StudyProc3
D_JOL D 2,136,1,BlockProc1,Block1,27,67,,Business - Death,U,67,0,2105,,,,,,,StudyProc3
D_JOL D 2,136,1,BlockProc1,Block1,28,33,,Rock - Geology,B,33,50,2770,,,,,,,StudyProc3
D_JOL D 2,136,1,BlockProc1,Block1,29,51,,Soda - Pop,S,51,100,1700,,,,,,,StudyProc3
D_JOL D 2,136,1,BlockProc1,Block1,30,7,,Wasp - Bug,F,7,100,2528,,,,,,,StudyProc3
D_JOL D 2,136,1,BlockProc1,Block1,31,5,,Growth - Height,F,5,100,17566,,,,,,,StudyProc3
D_JOL D 2,136,1,BlockProc1,Block1,32,26,,Cold - Bitter,B,26,0,25911,,,,,,,StudyProc3
D_JOL D 2,136,1,BlockProc1,Block1,33,47,,Bar - Grill,S,47,0,4675,,,,,,,StudyProc3
D_JOL D 2,136,1,BlockProc1,Block1,34,41,,Assignment - Due,S,41,0,3280,,,,,,,StudyProc3
D_JOL D 2,136,1,BlockProc1,Block1,35,73,,Tuck - Allow,U,73,100,3882,,,,,,,StudyProc3
D_JOL D 2,136,1,BlockProc1,Block1,36,66,,Floor - Discover,U,66,0,1972,,,,,,,StudyProc3
D_JOL D 2,136,1,BlockProc1,Block1,37,63,,Hungry - Park,U,63,100,2532,,,,,,,StudyProc3
D_JOL D 2,136,1,BlockProc1,Block1,38,19,,Pilot - Plane,F,19,50,2119,,,,,,,StudyProc3
D_JOL D 2,136,1,BlockProc1,Block1,39,27,,Plant - Root,B,27,25,1578,,,,,,,StudyProc3
D_JOL D 2,136,1,BlockProc1,Block1,40,74,,Lion - Art,U,74,0,2763,,,,,,,StudyProc3
D_JOL D 2,136,1,BlockProc1,Block1,41,18,,Attire - Clothes,F,18,100,4827,,,,,,,StudyProc3
D_JOL D 2,136,1,BlockProc1,Block1,42,29,,Dog - Paw,B,29,100,2245,,,,,,,StudyProc3
D_JOL D 2,136,1,BlockProc1,Block1,43,59,,Child - Baby,S,59,50,7205,,,,,,,StudyProc3
D_JOL D 2,136,1,BlockProc1,Block1,44,14,,Chore - Work,F,14,0,10333,,,,,,,StudyProc3
D_JOL D 2,136,1,BlockProc1,Block1,45,79,,Sick - Hide,U,79,0,6189,,,,,,,StudyProc3
D_JOL D 2,136,1,BlockProc1,Block1,46,44,,Waste - Dump,S,44,100,4016,,,,,,,StudyProc3
D_JOL D 2,136,1,BlockProc1,Block1,47,17,,Stench - Smell,F,17,100,4142,,,,,,,StudyProc3
D_JOL D 2,136,1,BlockProc1,Block1,48,69,,Bronze - Artery,U,69,25,2073,,,,,,,StudyProc3
D_JOL D 2,136,1,BlockProc1,Block1,49,80,,Vase - King,U,80,0,2050,,,,,,,StudyProc3
D_JOL D 2,136,1,BlockProc1,Block1,50,1,,Enough - Full,F,1,100,2093,,,,,,,StudyProc3
D_JOL D 2,136,1,BlockProc1,Block1,51,12,,Chili - Hot,F,12,100,6297,,,,,,,StudyProc3
D_JOL D 2,136,1,BlockProc1,Block1,52,72,,Car - Happy,U,72,0,2462,,,,,,,StudyProc3
D_JOL D 2,136,1,BlockProc1,Block1,53,36,,Cow - Herd,B,36,100,1584,,,,,,,StudyProc3
D_JOL D 2,136,1,BlockProc1,Block1,54,62,,Sacking - Dietary,U,62,0,1201,,,,,,,StudyProc3
D_JOL D 2,136,1,BlockProc1,Block1,55,70,,Hand - Fix,U,70,100,10677,,,,,,,StudyProc3
D_JOL D 2,136,1,BlockProc1,Block1,56,23,,Money - Wage,B,23,0,6802,,,,,,,StudyProc3
D_JOL D 2,136,1,BlockProc1,Block1,57,13,,Racket - Ball,F,13,0,5473,,,,,,,StudyProc3
D_JOL D 2,136,1,BlockProc1,Block1,58,71,,Position - Machine,U,71,0,2427,,,,,,,StudyProc3
D_JOL D 2,136,1,BlockProc1,Block1,59,34,,War - Revolution,B,34,100,1623,,,,,,,StudyProc3
D_JOL D 2,136,1,BlockProc1,Block1,60,8,,Division - Math,F,8,100,1959,,,,,,,StudyProc3
D_JOL D 2,136,1,BlockProc1,Block1,61,16,,Drowsy - Sleep,F,16,100,1971,,,,,,,StudyProc3
D_JOL D 2,136,1,BlockProc1,Block1,62,46,,Design - Architecture,S,46,0,1689,,,,,,,StudyProc3
D_JOL D 2,136,1,BlockProc1,Block1,63,2,,Sip - Drink,F,2,100,3080,,,,,,,StudyProc3
D_JOL D 2,136,1,BlockProc1,Block1,64,15,,Famine - Hunger,F,15,100,1871,,,,,,,StudyProc3
D_JOL D 2,136,1,BlockProc1,Block1,65,40,,Hammer - Chisel,B,40,0,3146,,,,,,,StudyProc3
D_JOL D 2,136,1,BlockProc1,Block1,66,10,,Fantastic - Great,F,10,100,2692,,,,,,,StudyProc3
D_JOL D 2,136,1,BlockProc1,Block1,67,22,,Stomach - Digestion,B,22,100,2659,,,,,,,StudyProc3
D_JOL D 2,136,1,BlockProc1,Block1,68,68,,Sight - Debate,U,68,0,3456,,,,,,,StudyProc3
D_JOL D 2,136,1,BlockProc1,Block1,69,11,,Latch - Key,F,11,100,2545,,,,,,,StudyProc3
D_JOL D 2,136,1,BlockProc1,Block1,70,55,,Foot - Shoe,S,55,100,3218,,,,,,,StudyProc3
D_JOL D 2,136,1,BlockProc1,Block1,71,4,,Seize - Take,F,4,0,1843,,,,,,,StudyProc3
D_JOL D 2,136,1,BlockProc1,Block1,72,75,,Accident - Strong,U,75,0,2790,,,,,,,StudyProc3
D_JOL D 2,136,1,BlockProc1,Block1,73,9,,Attorney - Law,F,9,100,2669,,,,,,,StudyProc3
D_JOL D 2,136,1,BlockProc1,Block1,74,61,,Clutter - Pusher,U,61,0,1433,,,,,,,StudyProc3
D_JOL D 2,136,1,BlockProc1,Block1,75,60,,Round - Circle,S,60,100,1945,,,,,,,StudyProc3
D_JOL D 2,136,1,BlockProc1,Block1,76,49,,End - Begin,S,49,100,1704,,,,,,,StudyProc3
D_JOL D 2,136,1,BlockProc1,Block1,77,78,,Would - Cash,U,78,50,2945,,,,,,,StudyProc3
D_JOL D 2,136,1,BlockProc1,Block1,78,20,,Blaze - Fire,F,20,0,2273,,,,,,,StudyProc3
D_JOL D 2,136,1,BlockProc1,Block1,79,6,,Word - Sentence,F,6,100,2224,,,,,,,StudyProc3
D_JOL D 2,136,1,BlockProc1,Block1,80,58,,Bee - Honey,S,58,100,4240,,,,,,,StudyProc3
D_JOL D 2,136,1,BlockProc1,Block1,81,54,,Decision - Choice,S,54,25,7679,,,,,,,StudyProc3
D_JOL D 2,136,1,BlockProc1,Block1,82,28,,Bird - Swan,B,28,10,2923,,,,,,,StudyProc3
D_JOL D 2,136,1,BlockProc1,Block1,83,57,,Salad - Lettuce,S,57,75,2927,,,,,,,StudyProc3
D_JOL D 2,136,1,BlockProc1,Block1,84,35,,Talk - Discussion,B,35,50,2333,,,,,,,StudyProc3
D_JOL D 2,136,1,BlockProc1,Block1,85,24,,News - Editor,B,24,50,6833,,,,,,,StudyProc3
D_JOL D 2,136,1,BlockProc1,Block1,86,,,Grab - Take,,2,,,,,,,,,StudyProc2
D_JOL D 2,136,1,BlockProc1,Block1,87,,,Trees - Green,,5,,,,,,,,,StudyProc2
D_JOL D 2,136,1,BlockProc1,Block1,88,,,Friendliness - Nice,,3,,,,,,,,,StudyProc2
D_JOL D 2,136,1,BlockProc1,Block1,89,,,Geese - Goose,,1,,,,,,,,,StudyProc2
D_JOL D 2,136,1,BlockProc1,Block1,90,,,Catcher - Baseball,,4,,,,,,,,,StudyProc2
D_JOL D 2,136,1,BlockProc1,Block1,91,,,Woman - ?,,64,,,,,nice,8329,,,recallproc1
D_JOL D 2,136,1,BlockProc1,Block1,92,,,Foot - ?,,55,,,,,shoe,5003,,,recallproc1
D_JOL D 2,136,1,BlockProc1,Block1,93,,,Hammer - ?,,24,,,,,dll,6317,,,recallproc1
D_JOL D 2,136,1,BlockProc1,Block1,94,,,Position - ?,,71,,,,,machine,6593,,,recallproc1
D_JOL D 2,136,1,BlockProc1,Block1,95,,,Hand - ?,,70,,,,,fix,3306,,,recallproc1
D_JOL D 2,136,1,BlockProc1,Block1,96,,,Cow - ?,,37,,,,,milk,7745,,,recallproc1
D_JOL D 2,136,1,BlockProc1,Block1,97,,,Attorney - ?,,9,,,,,law,2843,,,recallproc1
D_JOL D 2,136,1,BlockProc1,Block1,98,,,Flower - ?,,39,,,,,orchid,3797,,,recallproc1
D_JOL D 2,136,1,BlockProc1,Block1,99,,,Accident - ?,,75,,,,,car,4473,,,recallproc1
D_JOL D 2,136,1,BlockProc1,Block1,100,,,Talk - ?,,36,,,,,discusion,12696,,,recallproc1
D_JOL D 2,136,1,BlockProc1,Block1,101,,,Belt - ?,,65,,,,,pants,6815,,,recallproc1
D_JOL D 2,136,1,BlockProc1,Block1,102,,,Would - ?,,78,,,,,make,8727,,,recallproc1
D_JOL D 2,136,1,BlockProc1,Block1,103,,,Soda - ?,,51,,,,,pop,2600,,,recallproc1
D_JOL D 2,136,1,BlockProc1,Block1,104,,,Famine - ?,,15,,,,,huner,3085,,,recallproc1
D_JOL D 2,136,1,BlockProc1,Block1,105,,,Stomach - ?,,22,,,,,ache,8966,,,recallproc1
D_JOL D 2,136,1,BlockProc1,Block1,106,,,Amount - ?,,41,,,,,number,2589,,,recallproc1
D_JOL D 2,136,1,BlockProc1,Block1,107,,,Sting - ?,,26,,,,,hornet,6762,,,recallproc1
D_JOL D 2,136,1,BlockProc1,Block1,108,,,Jury - ?,,45,,,,,trial,2340,,,recallproc1
D_JOL D 2,136,1,BlockProc1,Block1,109,,,Money - ?,,23,,,,,bank,5451,,,recallproc1
D_JOL D 2,136,1,BlockProc1,Block1,110,,,Growth - ?,,5,,,,,height,2259,,,recallproc1
D_JOL D 2,136,1,BlockProc1,Block1,111,,,End - ?,,49,,,,,begin,2805,,,recallproc1
D_JOL D 2,136,1,BlockProc1,Block1,112,,,Pilot - ?,,19,,,,,plane,2257,,,recallproc1
D_JOL D 2,136,1,BlockProc1,Block1,113,,,Liver - ?,,48,,,,,kidney,2803,,,recallproc1
D_JOL D 2,136,1,BlockProc1,Block1,114,,,Tuck - ?,,73,,,,,llow,4471,,,recallproc1
D_JOL D 2,136,1,BlockProc1,Block1,115,,,Sip - ?,,2,,,,,drink,2615,,,recallproc1
D_JOL D 2,136,1,BlockProc1,Block1,116,,,Wasp - ?,,7,,,,,sting,4067,,,recallproc1
D_JOL D 2,136,1,BlockProc1,Block1,117,,,Clean - ?,,32,,,,,dirty,7131,,,recallproc1
D_JOL D 2,136,1,BlockProc1,Block1,118,,,Bar - ?,,47,,,,,drink,2486,,,recallproc1
D_JOL D 2,136,1,BlockProc1,Block1,119,,,Bird - ?,,29,,,,,penguin,11503,,,recallproc1
D_JOL D 2,136,1,BlockProc1,Block1,120,,,Clutter - ?,,61,,,,,trash,3807,,,recallproc1
D_JOL D 2,136,1,BlockProc1,Block1,121,,,Fish - ?,,40,,,,,tuna,1858,,,recallproc1
D_JOL D 2,136,1,BlockProc1,Block1,122,,,Division - ?,,8,,,,,math,2029,,,recallproc1
D_JOL D 2,136,1,BlockProc1,Block1,123,,,Riddle - ?,,76,,,,,solve,2896,,,recallproc1
D_JOL D 2,136,1,BlockProc1,Block1,124,,,Floor - ?,,66,,,,,ceiling,10257,,,recallproc1
D_JOL D 2,136,1,BlockProc1,Block1,125,,,Cold - ?,,27,,,,,ice,5740,,,recallproc1
D_JOL D 2,136,1,BlockProc1,Block1,126,,,Sacking - ?,,62,,,,,steal,3960,,,recallproc1
D_JOL D 2,136,1,BlockProc1,Block1,127,,,Round - ?,,60,,,,,circle,5076,,,recallproc1
D_JOL D 2,136,1,BlockProc1,Block1,128,,,Water- ?,,33,,,,,drink,2835,,,recallproc1
D_JOL D 2,136,1,BlockProc1,Block1,129,,,Car - ?,,72,,,,,accident,7126,,,recallproc1
D_JOL D 2,136,1,BlockProc1,Block1,130,,,Wind - ?,,50,,,,,blow,3393,,,recallproc1
D_JOL D 2,136,1,BlockProc1,Block1,131,,,Plant - ?,,28,,,,,flower,2989,,,recallproc1
D_JOL D 2,136,1,BlockProc1,Block1,132,,,Toilet - ?,,53,,,,,turn,4833,,,recallproc1
D_JOL D 2,136,1,BlockProc1,Block1,133,,,Add - ?,,77,,,,,subtract,6747,,,recallproc1
D_JOL D 2,136,1,BlockProc1,Block1,134,,,Blaze - ?,,20,,,,,hot,2989,,,recallproc1
D_JOL D 2,136,1,BlockProc1,Block1,135,,,Site - ?,,43,,,,,location,3985,,,recallproc1
D_JOL D 2,136,1,BlockProc1,Block1,136,,,Bee - ?,,58,,,,,honey,6389,,,recallproc1
D_JOL D 2,136,1,BlockProc1,Block1,137,,,Rock - ?,,34,,,,,stone,5807,,,recallproc1
D_JOL D 2,136,1,BlockProc1,Block1,138,,,Cheese - ?,,52,,,,,wine,2528,,,recallproc1
D_JOL D 2,136,1,BlockProc1,Block1,139,,,Attire - ?,,18,,,,,clothes,3287,,,recallproc1
D_JOL D 2,136,1,BlockProc1,Block1,140,,,Enough - ?,,1,,,,,little,5935,,,recallproc1
D_JOL D 2,136,1,BlockProc1,Block1,141,,,Business - ?,,67,,,,,paper,8435,,,recallproc1
D_JOL D 2,136,1,BlockProc1,Block1,142,,,Fantastic - ?,,10,,,,,great,2361,,,recallproc1
D_JOL D 2,136,1,BlockProc1,Block1,143,,,Decision - ?,,54,,,,,choice,5111,,,recallproc1
D_JOL D 2,136,1,BlockProc1,Block1,144,,,Dog - ?,,30,,,,,furry,3381,,,recallproc1
D_JOL D 2,136,1,BlockProc1,Block1,145,,,Future - ?,,56,,,,,past,2393,,,recallproc1
D_JOL D 2,136,1,BlockProc1,Block1,146,,,Hungry - ?,,63,,,,,eat,8606,,,recallproc1
D_JOL D 2,136,1,BlockProc1,Block1,147,,,Vase - ?,,80,,,,,flower,3133,,,recallproc1
D_JOL D 2,136,1,BlockProc1,Block1,148,,,Word - ?,,6,,,,,sentence,4844,,,recallproc1
D_JOL D 2,136,1,BlockProc1,Block1,149,,,Seize - ?,,4,,,,,allow,7924,,,recallproc1
D_JOL D 2,136,1,BlockProc1,Block1,150,,,Out - ?,,31,,,,,in,1895,,,recallproc1
D_JOL D 2,136,1,BlockProc1,Block1,151,,,Drowsy - ?,,16,,,,,sleep,3264,,,recallproc1
D_JOL D 2,136,1,BlockProc1,Block1,152,,,News - ?,,25,,,,,report,10306,,,recallproc1
D_JOL D 2,136,1,BlockProc1,Block1,153,,,Design - ?,,46,,,,,make,4763,,,recallproc1
D_JOL D 2,136,1,BlockProc1,Block1,154,,,Cave - ?,,3,,,,,dark,2439,,,recallproc1
D_JOL D 2,136,1,BlockProc1,Block1,155,,,Waste - ?,,44,,,,,trash,4234,,,recallproc1
D_JOL D 2,136,1,BlockProc1,Block1,156,,,Child - ?,,59,,,,,play,3091,,,recallproc1
D_JOL D 2,136,1,BlockProc1,Block1,157,,,Lion - ?,,74,,,,,make,6068,,,recallproc1
D_JOL D 2,136,1,BlockProc1,Block1,158,,,Bronze - ?,,69,,,,,gold,3042,,,recallproc1
D_JOL D 2,136,1,BlockProc1,Block1,159,,,Latch - ?,,11,,,,,key,4988,,,recallproc1
D_JOL D 2,136,1,BlockProc1,Block1,160,,,Assignment - ?,,42,,,,,due,2391,,,recallproc1
D_JOL D 2,136,1,BlockProc1,Block1,161,,,Sight - ?,,68,,,,,see,7308,,,recallproc1
D_JOL D 2,136,1,BlockProc1,Block1,162,,,Chili - ?,,12,,,,,hot,2064,,,recallproc1
D_JOL D 2,136,1,BlockProc1,Block1,163,,,Salad - ?,,57,,,,,lettuce,5154,,,recallproc1
D_JOL D 2,136,1,BlockProc1,Block1,164,,,Bad - ?,,21,,,,,evl,3478,,,recallproc1
D_JOL D 2,136,1,BlockProc1,Block1,165,,,Racket - ?,,13,,,,,noise,2951,,,recallproc1
D_JOL D 2,136,1,BlockProc1,Block1,166,,,Stench - ?,,17,,,,,smell,3237,,,recallproc1
D_JOL D 2,136,1,BlockProc1,Block1,167,,,Chore - ?,,14,,,,,done,3775,,,recallproc1
D_JOL D 2,136,1,BlockProc1,Block1,168,,,Card - ?,,38,,,,,credit,3124,,,recallproc1
D_JOL D 2,136,1,BlockProc1,Block1,169,,,Sick - ?,,79,,,,,healthy,30306,,,recallproc1
D_JOL D 2,136,1,BlockProc1,Block1,170,,,War - ?,,35,,,,,revolution,3968,,,recallproc1
